[{"success":true,"trial_type":"fullscreen","trial_index":0,"time_elapsed":5162,"internal_node_id":"0.0-0.0"},{"rt":1411.199999973178,"stimulus":"<p style='text-align:left'>感谢您参加我设计的心理实验</p><p style='text-align:left'>在进行试验之前，请您告诉我你最近一个月的心情是否开心</p><p style='text-align:left'>按空格键下一步</p>","key_press":32,"trial_type":"html-keyboard-response","trial_index":1,"time_elapsed":6578,"internal_node_id":"0.0-1.0-0.0"},{"rt":1983.6349999532104,"response":"50","stimulus":"<p>请您告诉我你最近一个月的心情是否开心</p>","trial_type":"html-slider-response","trial_index":2,"time_elapsed":9570,"internal_node_id":"0.0-1.0-1.0"},{"rt":null,"stimulus":"<p style=\"font-size: 48px\">+</p>","key_press":null,"trial_type":"html-keyboard-response","trial_index":3,"time_elapsed":11574,"internal_node_id":"0.0-1.0-2.0"},{"rt":8007.445000112057,"stimulus":"<p style='text-align:left'>我们生活中多多少少离不开赌博，比如氪金抽卡，买彩票，考试前的彻夜复习</p><p style='text-align:left'>在本次实验中请尽可能多的获得更多的钱（日元）</p><p style='text-align:left'>获得的奖励将以100日元：6人民币的汇率作为参加实验的额外报酬</p><p style='text-align:left'>　</p><p style='text-align:left'>按空格键下一步</p>","key_press":32,"trial_type":"html-keyboard-response","trial_index":4,"time_elapsed":19583,"internal_node_id":"0.0-2.0"},{"rt":5061.874999664724,"stimulus":"<p style='text-align:left'>你可以选择左边的数字或者右边的数字</p><p style='text-align:left'></p><p style='text-align:left'>左边意味着获得相当于该数字的奖励</p><p style='text-align:left'>右边意味着赌更高的奖励或更高的损失，50%的概率成功或失败</p><p style='text-align:left'>**请在3秒内进行选择，过期将会受到惩罚**</p><p style='text-align:left'>　</p><p style='text-align:left'>我会在实验途中随时确认你当前的心情</p><p style='text-align:left'>**请在4秒内进行选择，并按下确定按钮**</p><p style='text-align:left'>在开始之前，我为您准备了新手教程</p><p style='text-align:left'>按空格键下一步</p>","key_press":32,"trial_type":"html-keyboard-response","trial_index":5,"time_elapsed":25647,"internal_node_id":"0.0-3.0"},{"rt":null,"stimulus":"","button_pressed":null,"reward_s01":-40,"reward_s02":0,"feedback01":0,"feedback02":-112,"listcross":3,"trial_type":"html-button-response","trial_index":6,"time_elapsed":29655,"internal_node_id":"0.0-4.0-0.0"},{"rt":null,"stimulus":"<p style='position: absolute; top: 48%;right: 25%'><img src='img/s2.bmp' width='200px'/></p><p style='position: absolute; top: 53%;right: 27%;color: whilt;font-size: 45pt;'>￥-112</p><p style='font-size: 48px'>+</p>","key_press":null,"trial_type":"html-keyboard-response","trial_index":7,"time_elapsed":34159,"internal_node_id":"0.0-4.0-1.0"},{"rt":null,"stimulus":"<p style='position: absolute; top: 48%;right: 25%'><img src='img/s2.bmp' width='200px'/></p><p style='position: absolute; top: 53%;right: 27%;color: whilt;font-size: 45pt;'>￥-112</p><p style='font-size: 48px'>+</p>","key_press":null,"trial_type":"html-keyboard-response","trial_index":8,"time_elapsed":35163,"internal_node_id":"0.0-4.0-2.0"},{"rt":null,"stimulus":"<p style='font-size: 48px'>+</p>","key_press":null,"trial_type":"html-keyboard-response","trial_index":9,"time_elapsed":40067,"internal_node_id":"0.0-4.0-3.0"},{"rt":1715.654999949038,"stimulus":"","button_pressed":"4","reward_s01":20,"reward_s02":56,"feedback01":56,"feedback02":0,"listcross":7,"trial_type":"html-button-response","trial_index":10,"time_elapsed":41799,"internal_node_id":"0.0-4.0-0.1"},{"rt":null,"stimulus":"<p style='position: absolute; top: 27%;right: 25%'><img src='img/s2.bmp' width='200px'/></p><p style='position: absolute; top: 31%;right: 27%;color: whilt;font-size: 45pt;'>￥56</p><p style='position: absolute; top: 48%;right: 25%'><img src='img/s2.bmp' width='200px'/></p><p style='position: absolute; top: 53%;right: 27%;color: whilt;font-size: 45pt;'>￥0</p><p style='font-size: 48px'>+</p>","key_press":null,"trial_type":"html-keyboard-response","trial_index":11,"time_elapsed":46305,"internal_node_id":"0.0-4.0-1.1"},{"rt":null,"stimulus":"<p style='position: absolute; top: 27%;right: 25%'><img src='img/s2.bmp' width='200px'/></p><p style='position: absolute; top: 31%;right: 27%;color: whilt;font-size: 45pt;'>￥56</p><p style='font-size: 48px'>+</p>","key_press":null,"trial_type":"html-keyboard-response","trial_index":12,"time_elapsed":47312,"internal_node_id":"0.0-4.0-2.1"},{"rt":null,"stimulus":"<p style='font-size: 48px'>+</p>","key_press":null,"trial_type":"html-keyboard-response","trial_index":13,"time_elapsed":52215,"internal_node_id":"0.0-4.0-3.1"},{"rt":null,"stimulus":"<p>请您告诉我你现在的心情</p>","key_press":null,"trial_type":"html-keyboard-response","trial_index":14,"time_elapsed":54216,"internal_node_id":"0.0-5.0-0.0"},{"rt":2605.255000293255,"response":"38","stimulus":"<p>请您告诉我你现在的心情</p>","trial_type":"html-slider-response","trial_index":15,"time_elapsed":56824,"internal_node_id":"0.0-5.0-1.0"},{"rt":null,"stimulus":"<p style=\"font-size: 48px\">+</p>","key_press":null,"trial_type":"html-keyboard-response","trial_index":16,"time_elapsed":58926,"internal_node_id":"0.0-5.0-2.0"},{"rt":1183.9450001716614,"stimulus":"","button_pressed":"4","reward_s01":40,"reward_s02":200,"feedback01":200,"feedback02":0,"listcross":5,"trial_type":"html-button-response","trial_index":17,"time_elapsed":60125,"internal_node_id":"0.0-6.0-0.0"},{"rt":null,"stimulus":"<p style='position: absolute; top: 27%;right: 25%'><img src='img/s2.bmp' width='200px'/></p><p style='position: absolute; top: 31%;right: 27%;color: whilt;font-size: 45pt;'>￥200</p><p style='position: absolute; top: 48%;right: 25%'><img src='img/s2.bmp' width='200px'/></p><p style='position: absolute; top: 53%;right: 27%;color: whilt;font-size: 45pt;'>￥0</p><p style='font-size: 48px'>+</p>","key_press":null,"trial_type":"html-keyboard-response","trial_index":18,"time_elapsed":64645,"internal_node_id":"0.0-6.0-1.0"},{"rt":null,"stimulus":"<p style='position: absolute; top: 27%;right: 25%'><img src='img/s2.bmp' width='200px'/></p><p style='position: absolute; top: 31%;right: 27%;color: whilt;font-size: 45pt;'>￥200</p><p style='font-size: 48px'>+</p>","key_press":null,"trial_type":"html-keyboard-response","trial_index":19,"time_elapsed":65652,"internal_node_id":"0.0-6.0-2.0"},{"rt":null,"stimulus":"<p style='font-size: 48px'>+</p>","key_press":null,"trial_type":"html-keyboard-response","trial_index":20,"time_elapsed":67754,"internal_node_id":"0.0-6.0-3.0"},{"rt":2596.669999882579,"stimulus":"","button_pressed":"2","reward_s01":-50,"reward_s02":-124,"feedback01":0,"feedback02":-124,"listcross":3,"trial_type":"html-button-response","trial_index":21,"time_elapsed":70360,"internal_node_id":"0.0-6.0-0.1"},{"rt":null,"stimulus":"<p style='position: absolute; top: 27%;right: 25%'><img src='img/s2.bmp' width='200px'/></p><p style='position: absolute; top: 31%;right: 27%;color: whilt;font-size: 45pt;'>￥0</p><p style='position: absolute; top: 48%;right: 25%'><img src='img/s2.bmp' width='200px'/></p><p style='position: absolute; top: 53%;right: 27%;color: whilt;font-size: 45pt;'>￥-124</p><p style='font-size: 48px'>+</p>","key_press":null,"trial_type":"html-keyboard-response","trial_index":22,"time_elapsed":74866,"internal_node_id":"0.0-6.0-1.1"},{"rt":null,"stimulus":"<p style='position: absolute; top: 48%;right: 25%'><img src='img/s2.bmp' width='200px'/></p><p style='position: absolute; top: 53%;right: 27%;color: whilt;font-size: 45pt;'>￥-124</p><p style='font-size: 48px'>+</p>","key_press":null,"trial_type":"html-keyboard-response","trial_index":23,"time_elapsed":75873,"internal_node_id":"0.0-6.0-2.1"},{"rt":null,"stimulus":"<p style='font-size: 48px'>+</p>","key_press":null,"trial_type":"html-keyboard-response","trial_index":24,"time_elapsed":79375,"internal_node_id":"0.0-6.0-3.1"},{"rt":null,"stimulus":"<p>请您告诉我你现在的心情</p>","key_press":null,"trial_type":"html-keyboard-response","trial_index":25,"time_elapsed":81379,"internal_node_id":"0.0-7.0-0.0"},{"rt":2045.7950001582503,"response":"59","stimulus":"<p>请您告诉我你现在的心情</p>","trial_type":"html-slider-response","trial_index":26,"time_elapsed":83426,"internal_node_id":"0.0-7.0-1.0"},{"rt":null,"stimulus":"<p style=\"font-size: 48px\">+</p>","key_press":null,"trial_type":"html-keyboard-response","trial_index":27,"time_elapsed":85529,"internal_node_id":"0.0-7.0-2.0"},{"rt":11859.10499934107,"stimulus":"<p style='text-align:left'>新手教程结束</p><p style='text-align:left'>接下来进入实验环节</p><p style='text-align:left'>按空格键下一步</p>","key_press":32,"trial_type":"html-keyboard-response","trial_index":28,"time_elapsed":97389,"internal_node_id":"0.0-8.0"},{"rt":1562.919999472797,"stimulus":"","button_pressed":"2","reward_s01":0,"reward_s02":-88,"feedback01":88,"feedback02":-88,"listcross":4,"trial_type":"html-button-response","trial_index":29,"time_elapsed":99969,"internal_node_id":"0.0-9.0-0.0"},{"rt":null,"stimulus":"<p style='position: absolute; top: 27%;right: 25%'><img src='img/s2.bmp' width='200px'/></p><p style='position: absolute; top: 31%;right: 27%;color: whilt;font-size: 45pt;'>￥88</p><p style='position: absolute; top: 48%;right: 25%'><img src='img/s2.bmp' width='200px'/></p><p style='position: absolute; top: 53%;right: 27%;color: whilt;font-size: 45pt;'>￥-88</p><p style='font-size: 48px'>+</p>","key_press":null,"trial_type":"html-keyboard-response","trial_index":30,"time_elapsed":104473,"internal_node_id":"0.0-9.0-1.0"},{"rt":null,"stimulus":"<p style='position: absolute; top: 48%;right: 25%'><img src='img/s2.bmp' width='200px'/></p><p style='position: absolute; top: 53%;right: 27%;color: whilt;font-size: 45pt;'>￥-88</p><p style='font-size: 48px'>+</p>","key_press":null,"trial_type":"html-keyboard-response","trial_index":31,"time_elapsed":105478,"internal_node_id":"0.0-9.0-2.0"},{"rt":null,"stimulus":"<p style='font-size: 48px'>+</p>","key_press":null,"trial_type":"html-keyboard-response","trial_index":32,"time_elapsed":108281,"internal_node_id":"0.0-9.0-3.0"},{"rt":1775.3649996593595,"stimulus":"","button_pressed":"2","reward_s01":-60,"reward_s02":-132,"feedback01":0,"feedback02":-132,"listcross":6,"trial_type":"html-button-response","trial_index":33,"time_elapsed":110072,"internal_node_id":"0.0-9.0-0.1"},{"rt":null,"stimulus":"<p style='position: absolute; top: 27%;right: 25%'><img src='img/s2.bmp' width='200px'/></p><p style='position: absolute; top: 31%;right: 27%;color: whilt;font-size: 45pt;'>￥0</p><p style='position: absolute; top: 48%;right: 25%'><img src='img/s2.bmp' width='200px'/></p><p style='position: absolute; top: 53%;right: 27%;color: whilt;font-size: 45pt;'>￥-132</p><p style='font-size: 48px'>+</p>","key_press":null,"trial_type":"html-keyboard-response","trial_index":34,"time_elapsed":114577,"internal_node_id":"0.0-9.0-1.1"},{"rt":null,"stimulus":"<p style='position: absolute; top: 48%;right: 25%'><img src='img/s2.bmp' width='200px'/></p><p style='position: absolute; top: 53%;right: 27%;color: whilt;font-size: 45pt;'>￥-132</p><p style='font-size: 48px'>+</p>","key_press":null,"trial_type":"html-keyboard-response","trial_index":35,"time_elapsed":115585,"internal_node_id":"0.0-9.0-2.1"},{"rt":null,"stimulus":"<p style='font-size: 48px'>+</p>","key_press":null,"trial_type":"html-keyboard-response","trial_index":36,"time_elapsed":117686,"internal_node_id":"0.0-9.0-3.1"},{"rt":null,"stimulus":"<p>请您告诉我你现在的心情</p>","key_press":null,"trial_type":"html-keyboard-response","trial_index":37,"time_elapsed":119690,"internal_node_id":"0.0-10.0-0.0"},{"rt":null,"response":null,"stimulus":"<p>请您告诉我你现在的心情</p>","trial_type":"html-slider-response","trial_index":38,"time_elapsed":123694,"internal_node_id":"0.0-10.0-1.0"},{"rt":null,"stimulus":"<p style=\"font-size: 48px\">+</p>","key_press":null,"trial_type":"html-keyboard-response","trial_index":39,"time_elapsed":128597,"internal_node_id":"0.0-10.0-2.0"},{"rt":null,"stimulus":"","button_pressed":null,"reward_s01":30,"reward_s02":94.8,"feedback01":94.8,"feedback02":0,"listcross":11,"trial_type":"html-button-response","trial_index":40,"time_elapsed":131613,"internal_node_id":"0.0-11.0-0.0"},{"rt":null,"stimulus":"<p style='position: absolute; top: 48%;right: 25%'><img src='img/s2.bmp' width='200px'/></p><p style='position: absolute; top: 53%;right: 27%;color: whilt;font-size: 45pt;'>￥0</p><p style='font-size: 48px'>+</p>","key_press":null,"trial_type":"html-keyboard-response","trial_index":41,"time_elapsed":136119,"internal_node_id":"0.0-11.0-1.0"},{"rt":null,"stimulus":"<p style='position: absolute; top: 48%;right: 25%'><img src='img/s2.bmp' width='200px'/></p><p style='position: absolute; top: 53%;right: 27%;color: whilt;font-size: 45pt;'>￥0</p><p style='font-size: 48px'>+</p>","key_press":null,"trial_type":"html-keyboard-response","trial_index":42,"time_elapsed":137128,"internal_node_id":"0.0-11.0-2.0"},{"rt":null,"stimulus":"<p style='font-size: 48px'>+</p>","key_press":null,"trial_type":"html-keyboard-response","trial_index":43,"time_elapsed":139931,"internal_node_id":"0.0-11.0-3.0"},{"rt":1825.9399998933077,"stimulus":"","button_pressed":"0","reward_s01":-30,"reward_s02":-108,"feedback01":0,"feedback02":-108,"listcross":7,"trial_type":"html-button-response","trial_index":44,"time_elapsed":141773,"internal_node_id":"0.0-11.0-0.1"},{"rt":null,"stimulus":"<p style='position: absolute; top: 38%;left: 25%'><img src='img/s2.bmp' width='200px'/></p><p style='position: absolute; top: 42%;left: 28%;color: whilt;font-size: 45pt;'>￥-30</p><p style='font-size: 48px'>+</p>","key_press":null,"trial_type":"html-keyboard-response","trial_index":45,"time_elapsed":146276,"internal_node_id":"0.0-11.0-1.1"},{"rt":null,"stimulus":"<p style='position: absolute; top: 38%;left: 25%'><img src='img/s2.bmp' width='200px'/></p><p style='position: absolute; top: 42%;left: 28%;color: whilt;font-size: 45pt;'>￥-30</p><p style='font-size: 48px'>+</p>","key_press":null,"trial_type":"html-keyboard-response","trial_index":46,"time_elapsed":147283,"internal_node_id":"0.0-11.0-2.1"},{"rt":null,"stimulus":"<p style='font-size: 48px'>+</p>","key_press":null,"trial_type":"html-keyboard-response","trial_index":47,"time_elapsed":151486,"internal_node_id":"0.0-11.0-3.1"},{"rt":null,"stimulus":"<p>请您告诉我你现在的心情</p>","key_press":null,"trial_type":"html-keyboard-response","trial_index":48,"time_elapsed":153488,"internal_node_id":"0.0-12.0-0.0"},{"rt":2351.79500002414,"response":"69","stimulus":"<p>请您告诉我你现在的心情</p>","trial_type":"html-slider-response","trial_index":49,"time_elapsed":155841,"internal_node_id":"0.0-12.0-1.0"},{"rt":null,"stimulus":"<p style=\"font-size: 48px\">+</p>","key_press":null,"trial_type":"html-keyboard-response","trial_index":50,"time_elapsed":158643,"internal_node_id":"0.0-12.0-2.0"},{"rt":null,"stimulus":"","button_pressed":null,"reward_s01":0,"reward_s02":-16,"feedback01":16,"feedback02":-16,"listcross":3,"trial_type":"html-button-response","trial_index":51,"time_elapsed":161660,"internal_node_id":"0.0-13.0-0.0"},{"rt":null,"stimulus":"<p style='position: absolute; top: 48%;right: 25%'><img src='img/s2.bmp' width='200px'/></p><p style='position: absolute; top: 53%;right: 27%;color: whilt;font-size: 45pt;'>￥-16</p><p style='font-size: 48px'>+</p>","key_press":null,"trial_type":"html-keyboard-response","trial_index":52,"time_elapsed":166167,"internal_node_id":"0.0-13.0-1.0"},{"rt":null,"stimulus":"<p style='position: absolute; top: 48%;right: 25%'><img src='img/s2.bmp' width='200px'/></p><p style='position: absolute; top: 53%;right: 27%;color: whilt;font-size: 45pt;'>￥-16</p><p style='font-size: 48px'>+</p>","key_press":null,"trial_type":"html-keyboard-response","trial_index":53,"time_elapsed":167175,"internal_node_id":"0.0-13.0-2.0"},{"rt":null,"stimulus":"<p style='font-size: 48px'>+</p>","key_press":null,"trial_type":"html-keyboard-response","trial_index":54,"time_elapsed":169979,"internal_node_id":"0.0-13.0-3.0"},{"rt":1648.0750003829598,"stimulus":"","button_pressed":"1","reward_s01":0,"reward_s02":99,"feedback01":99,"feedback02":-99,"listcross":5,"trial_type":"html-button-response","trial_index":55,"time_elapsed":171644,"internal_node_id":"0.0-13.0-0.1"},{"rt":null,"stimulus":"<p style='position: absolute; top: 38%;left: 25%'><img src='img/s2.bmp' width='200px'/></p><p style='position: absolute; top: 42%;left: 28%;color: whilt;font-size: 45pt;'>￥0</p><p style='font-size: 48px'>+</p>","key_press":null,"trial_type":"html-keyboard-response","trial_index":56,"time_elapsed":176149,"internal_node_id":"0.0-13.0-1.1"},{"rt":null,"stimulus":"<p style='position: absolute; top: 38%;left: 25%'><img src='img/s2.bmp' width='200px'/></p><p style='position: absolute; top: 42%;left: 28%;color: whilt;font-size: 45pt;'>￥0</p><p style='font-size: 48px'>+</p>","key_press":null,"trial_type":"html-keyboard-response","trial_index":57,"time_elapsed":177157,"internal_node_id":"0.0-13.0-2.1"},{"rt":null,"stimulus":"<p style='font-size: 48px'>+</p>","key_press":null,"trial_type":"html-keyboard-response","trial_index":58,"time_elapsed":184161,"internal_node_id":"0.0-13.0-3.1"},{"rt":null,"stimulus":"<p>请您告诉我你现在的心情</p>","key_press":null,"trial_type":"html-keyboard-response","trial_index":59,"time_elapsed":186164,"internal_node_id":"0.0-14.0-0.0"},{"rt":1476.9200002774596,"response":"50","stimulus":"<p>请您告诉我你现在的心情</p>","trial_type":"html-slider-response","trial_index":60,"time_elapsed":187643,"internal_node_id":"0.0-14.0-1.0"},{"rt":null,"stimulus":"<p style=\"font-size: 48px\">+</p>","key_press":null,"trial_type":"html-keyboard-response","trial_index":61,"time_elapsed":189745,"internal_node_id":"0.0-14.0-2.0"},{"rt":1632.8949993476272,"stimulus":"","button_pressed":"4","reward_s01":60,"reward_s02":0,"feedback01":148.8,"feedback02":0,"listcross":11,"trial_type":"html-button-response","trial_index":62,"time_elapsed":191392,"internal_node_id":"0.0-15.0-0.0"},{"rt":null,"stimulus":"<p style='position: absolute; top: 27%;right: 25%'><img src='img/s2.bmp' width='200px'/></p><p style='position: absolute; top: 31%;right: 27%;color: whilt;font-size: 45pt;'>￥148.8</p><p style='position: absolute; top: 48%;right: 25%'><img src='img/s2.bmp' width='200px'/></p><p style='position: absolute; top: 53%;right: 27%;color: whilt;font-size: 45pt;'>￥0</p><p style='font-size: 48px'>+</p>","key_press":null,"trial_type":"html-keyboard-response","trial_index":63,"time_elapsed":195898,"internal_node_id":"0.0-15.0-1.0"},{"rt":null,"stimulus":"<p style='position: absolute; top: 48%;right: 25%'><img src='img/s2.bmp' width='200px'/></p><p style='position: absolute; top: 53%;right: 27%;color: whilt;font-size: 45pt;'>￥0</p><p style='font-size: 48px'>+</p>","key_press":null,"trial_type":"html-keyboard-response","trial_index":64,"time_elapsed":196906,"internal_node_id":"0.0-15.0-2.0"},{"rt":null,"stimulus":"<p style='font-size: 48px'>+</p>","key_press":null,"trial_type":"html-keyboard-response","trial_index":65,"time_elapsed":202508,"internal_node_id":"0.0-15.0-3.0"},{"rt":null,"stimulus":"","button_pressed":null,"reward_s01":-40,"reward_s02":0,"feedback01":0,"feedback02":-67.2,"listcross":3,"trial_type":"html-button-response","trial_index":66,"time_elapsed":205527,"internal_node_id":"0.0-15.0-0.1"},{"rt":null,"stimulus":"<p style='position: absolute; top: 48%;right: 25%'><img src='img/s2.bmp' width='200px'/></p><p style='position: absolute; top: 53%;right: 27%;color: whilt;font-size: 45pt;'>￥-67.2</p><p style='font-size: 48px'>+</p>","key_press":null,"trial_type":"html-keyboard-response","trial_index":67,"time_elapsed":210037,"internal_node_id":"0.0-15.0-1.1"},{"rt":null,"stimulus":"<p style='position: absolute; top: 48%;right: 25%'><img src='img/s2.bmp' width='200px'/></p><p style='position: absolute; top: 53%;right: 27%;color: whilt;font-size: 45pt;'>￥-67.2</p><p style='font-size: 48px'>+</p>","key_press":null,"trial_type":"html-keyboard-response","trial_index":68,"time_elapsed":211045,"internal_node_id":"0.0-15.0-2.1"},{"rt":null,"stimulus":"<p style='font-size: 48px'>+</p>","key_press":null,"trial_type":"html-keyboard-response","trial_index":69,"time_elapsed":213848,"internal_node_id":"0.0-15.0-3.1"},{"rt":null,"stimulus":"<p>请您告诉我你现在的心情</p>","key_press":null,"trial_type":"html-keyboard-response","trial_index":70,"time_elapsed":215850,"internal_node_id":"0.0-16.0-0.0"},{"rt":1773.4449999406934,"response":"8","stimulus":"<p>请您告诉我你现在的心情</p>","trial_type":"html-slider-response","trial_index":71,"time_elapsed":217625,"internal_node_id":"0.0-16.0-1.0"},{"rt":null,"stimulus":"<p style=\"font-size: 48px\">+</p>","key_press":null,"trial_type":"html-keyboard-response","trial_index":72,"time_elapsed":221127,"internal_node_id":"0.0-16.0-2.0"},{"rt":1305.1949990913272,"stimulus":"","button_pressed":"4","reward_s01":-50,"reward_s02":0,"feedback01":0,"feedback02":-110,"listcross":7,"trial_type":"html-button-response","trial_index":73,"time_elapsed":222447,"internal_node_id":"0.0-17.0-0.0"},{"rt":null,"stimulus":"<p style='position: absolute; top: 27%;right: 25%'><img src='img/s2.bmp' width='200px'/></p><p style='position: absolute; top: 31%;right: 27%;color: whilt;font-size: 45pt;'>￥0</p><p style='position: absolute; top: 48%;right: 25%'><img src='img/s2.bmp' width='200px'/></p><p style='position: absolute; top: 53%;right: 27%;color: whilt;font-size: 45pt;'>￥-110</p><p style='font-size: 48px'>+</p>","key_press":null,"trial_type":"html-keyboard-response","trial_index":74,"time_elapsed":226962,"internal_node_id":"0.0-17.0-1.0"},{"rt":null,"stimulus":"<p style='position: absolute; top: 27%;right: 25%'><img src='img/s2.bmp' width='200px'/></p><p style='position: absolute; top: 31%;right: 27%;color: whilt;font-size: 45pt;'>￥0</p><p style='font-size: 48px'>+</p>","key_press":null,"trial_type":"html-keyboard-response","trial_index":75,"time_elapsed":227971,"internal_node_id":"0.0-17.0-2.0"},{"rt":null,"stimulus":"<p style='font-size: 48px'>+</p>","key_press":null,"trial_type":"html-keyboard-response","trial_index":76,"time_elapsed":230073,"internal_node_id":"0.0-17.0-3.0"},{"rt":2144.0949998795986,"stimulus":"","button_pressed":"1","reward_s01":-30,"reward_s02":-66.6,"feedback01":0,"feedback02":-66.6,"listcross":4,"trial_type":"html-button-response","trial_index":77,"time_elapsed":232233,"internal_node_id":"0.0-17.0-0.1"},{"rt":null,"stimulus":"<p style='position: absolute; top: 38%;left: 25%'><img src='img/s2.bmp' width='200px'/></p><p style='position: absolute; top: 42%;left: 28%;color: whilt;font-size: 45pt;'>￥-30</p><p style='font-size: 48px'>+</p>","key_press":null,"trial_type":"html-keyboard-response","trial_index":78,"time_elapsed":236737,"internal_node_id":"0.0-17.0-1.1"},{"rt":null,"stimulus":"<p style='position: absolute; top: 38%;left: 25%'><img src='img/s2.bmp' width='200px'/></p><p style='position: absolute; top: 42%;left: 28%;color: whilt;font-size: 45pt;'>￥-30</p><p style='font-size: 48px'>+</p>","key_press":null,"trial_type":"html-keyboard-response","trial_index":79,"time_elapsed":237746,"internal_node_id":"0.0-17.0-2.1"},{"rt":null,"stimulus":"<p style='font-size: 48px'>+</p>","key_press":null,"trial_type":"html-keyboard-response","trial_index":80,"time_elapsed":240548,"internal_node_id":"0.0-17.0-3.1"},{"rt":1323.7749999389052,"stimulus":"","button_pressed":"4","reward_s01":-50,"reward_s02":0,"feedback01":0,"feedback02":-140,"listcross":3,"trial_type":"html-button-response","trial_index":81,"time_elapsed":241887,"internal_node_id":"0.0-17.0-0.2"},{"rt":null,"stimulus":"<p style='position: absolute; top: 27%;right: 25%'><img src='img/s2.bmp' width='200px'/></p><p style='position: absolute; top: 31%;right: 27%;color: whilt;font-size: 45pt;'>￥0</p><p style='position: absolute; top: 48%;right: 25%'><img src='img/s2.bmp' width='200px'/></p><p style='position: absolute; top: 53%;right: 27%;color: whilt;font-size: 45pt;'>￥-140</p><p style='font-size: 48px'>+</p>","key_press":null,"trial_type":"html-keyboard-response","trial_index":82,"time_elapsed":246393,"internal_node_id":"0.0-17.0-1.2"},{"rt":null,"stimulus":"<p style='position: absolute; top: 27%;right: 25%'><img src='img/s2.bmp' width='200px'/></p><p style='position: absolute; top: 31%;right: 27%;color: whilt;font-size: 45pt;'>￥0</p><p style='font-size: 48px'>+</p>","key_press":null,"trial_type":"html-keyboard-response","trial_index":83,"time_elapsed":247401,"internal_node_id":"0.0-17.0-2.2"},{"rt":null,"stimulus":"<p style='font-size: 48px'>+</p>","key_press":null,"trial_type":"html-keyboard-response","trial_index":84,"time_elapsed":250902,"internal_node_id":"0.0-17.0-3.2"},{"rt":null,"stimulus":"<p>请您告诉我你现在的心情</p>","key_press":null,"trial_type":"html-keyboard-response","trial_index":85,"time_elapsed":252905,"internal_node_id":"0.0-18.0-0.0"},{"rt":2003.890000283718,"response":"50","stimulus":"<p>请您告诉我你现在的心情</p>","trial_type":"html-slider-response","trial_index":86,"time_elapsed":254910,"internal_node_id":"0.0-18.0-1.0"},{"rt":null,"stimulus":"<p style=\"font-size: 48px\">+</p>","key_press":null,"trial_type":"html-keyboard-response","trial_index":87,"time_elapsed":257013,"internal_node_id":"0.0-18.0-2.0"},{"rt":1464.3050003796816,"stimulus":"","button_pressed":"4","reward_s01":-30,"reward_s02":-150,"feedback01":0,"feedback02":-150,"listcross":5,"trial_type":"html-button-response","trial_index":88,"time_elapsed":258495,"internal_node_id":"0.0-19.0-0.0"},{"rt":null,"stimulus":"<p style='position: absolute; top: 27%;right: 25%'><img src='img/s2.bmp' width='200px'/></p><p style='position: absolute; top: 31%;right: 27%;color: whilt;font-size: 45pt;'>￥0</p><p style='position: absolute; top: 48%;right: 25%'><img src='img/s2.bmp' width='200px'/></p><p style='position: absolute; top: 53%;right: 27%;color: whilt;font-size: 45pt;'>￥-150</p><p style='font-size: 48px'>+</p>","key_press":null,"trial_type":"html-keyboard-response","trial_index":89,"time_elapsed":263002,"internal_node_id":"0.0-19.0-1.0"},{"rt":null,"stimulus":"<p style='position: absolute; top: 48%;right: 25%'><img src='img/s2.bmp' width='200px'/></p><p style='position: absolute; top: 53%;right: 27%;color: whilt;font-size: 45pt;'>￥-150</p><p style='font-size: 48px'>+</p>","key_press":null,"trial_type":"html-keyboard-response","trial_index":90,"time_elapsed":264011,"internal_node_id":"0.0-19.0-2.0"},{"rt":null,"stimulus":"<p style='font-size: 48px'>+</p>","key_press":null,"trial_type":"html-keyboard-response","trial_index":91,"time_elapsed":268913,"internal_node_id":"0.0-19.0-3.0"},{"rt":1334.5200000330806,"stimulus":"","button_pressed":"4","reward_s01":0,"reward_s02":-123,"feedback01":123,"feedback02":-123,"listcross":6,"trial_type":"html-button-response","trial_index":92,"time_elapsed":270257,"internal_node_id":"0.0-19.0-0.1"},{"rt":null,"stimulus":"<p style='position: absolute; top: 27%;right: 25%'><img src='img/s2.bmp' width='200px'/></p><p style='position: absolute; top: 31%;right: 27%;color: whilt;font-size: 45pt;'>￥123</p><p style='position: absolute; top: 48%;right: 25%'><img src='img/s2.bmp' width='200px'/></p><p style='position: absolute; top: 53%;right: 27%;color: whilt;font-size: 45pt;'>￥-123</p><p style='font-size: 48px'>+</p>","key_press":null,"trial_type":"html-keyboard-response","trial_index":93,"time_elapsed":274761,"internal_node_id":"0.0-19.0-1.1"},{"rt":null,"stimulus":"<p style='position: absolute; top: 48%;right: 25%'><img src='img/s2.bmp' width='200px'/></p><p style='position: absolute; top: 53%;right: 27%;color: whilt;font-size: 45pt;'>￥-123</p><p style='font-size: 48px'>+</p>","key_press":null,"trial_type":"html-keyboard-response","trial_index":94,"time_elapsed":275769,"internal_node_id":"0.0-19.0-2.1"},{"rt":null,"stimulus":"<p style='font-size: 48px'>+</p>","key_press":null,"trial_type":"html-keyboard-response","trial_index":95,"time_elapsed":278571,"internal_node_id":"0.0-19.0-3.1"},{"rt":null,"stimulus":"<p>请您告诉我你现在的心情</p>","key_press":null,"trial_type":"html-keyboard-response","trial_index":96,"time_elapsed":280573,"internal_node_id":"0.0-20.0-0.0"},{"rt":1520.6550005823374,"response":"18","stimulus":"<p>请您告诉我你现在的心情</p>","trial_type":"html-slider-response","trial_index":97,"time_elapsed":282094,"internal_node_id":"0.0-20.0-1.0"},{"rt":null,"stimulus":"<p style=\"font-size: 48px\">+</p>","key_press":null,"trial_type":"html-keyboard-response","trial_index":98,"time_elapsed":287697,"internal_node_id":"0.0-20.0-2.0"},{"rt":1504.6999994665384,"stimulus":"","button_pressed":"4","reward_s01":-20,"reward_s02":0,"feedback01":0,"feedback02":-84,"listcross":3,"trial_type":"html-button-response","trial_index":99,"time_elapsed":289217,"internal_node_id":"0.0-21.0-0.0"},{"rt":null,"stimulus":"<p style='position: absolute; top: 27%;right: 25%'><img src='img/s2.bmp' width='200px'/></p><p style='position: absolute; top: 31%;right: 27%;color: whilt;font-size: 45pt;'>￥0</p><p style='position: absolute; top: 48%;right: 25%'><img src='img/s2.bmp' width='200px'/></p><p style='position: absolute; top: 53%;right: 27%;color: whilt;font-size: 45pt;'>￥-84</p><p style='font-size: 48px'>+</p>","key_press":null,"trial_type":"html-keyboard-response","trial_index":100,"time_elapsed":293723,"internal_node_id":"0.0-21.0-1.0"},{"rt":null,"stimulus":"<p style='position: absolute; top: 27%;right: 25%'><img src='img/s2.bmp' width='200px'/></p><p style='position: absolute; top: 31%;right: 27%;color: whilt;font-size: 45pt;'>￥0</p><p style='font-size: 48px'>+</p>","key_press":null,"trial_type":"html-keyboard-response","trial_index":101,"time_elapsed":294731,"internal_node_id":"0.0-21.0-2.0"},{"rt":null,"stimulus":"<p style='font-size: 48px'>+</p>","key_press":null,"trial_type":"html-keyboard-response","trial_index":102,"time_elapsed":298233,"internal_node_id":"0.0-21.0-3.0"},{"rt":1229.3899999931455,"stimulus":"","button_pressed":"4","reward_s01":40,"reward_s02":168,"feedback01":168,"feedback02":0,"listcross":7,"trial_type":"html-button-response","trial_index":103,"time_elapsed":299478,"internal_node_id":"0.0-21.0-0.1"},{"rt":null,"stimulus":"<p style='position: absolute; top: 27%;right: 25%'><img src='img/s2.bmp' width='200px'/></p><p style='position: absolute; top: 31%;right: 27%;color: whilt;font-size: 45pt;'>￥168</p><p style='position: absolute; top: 48%;right: 25%'><img src='img/s2.bmp' width='200px'/></p><p style='position: absolute; top: 53%;right: 27%;color: whilt;font-size: 45pt;'>￥0</p><p style='font-size: 48px'>+</p>","key_press":null,"trial_type":"html-keyboard-response","trial_index":104,"time_elapsed":303984,"internal_node_id":"0.0-21.0-1.1"},{"rt":null,"stimulus":"<p style='position: absolute; top: 27%;right: 25%'><img src='img/s2.bmp' width='200px'/></p><p style='position: absolute; top: 31%;right: 27%;color: whilt;font-size: 45pt;'>￥168</p><p style='font-size: 48px'>+</p>","key_press":null,"trial_type":"html-keyboard-response","trial_index":105,"time_elapsed":304987,"internal_node_id":"0.0-21.0-2.1"},{"rt":null,"stimulus":"<p style='font-size: 48px'>+</p>","key_press":null,"trial_type":"html-keyboard-response","trial_index":106,"time_elapsed":307789,"internal_node_id":"0.0-21.0-3.1"},{"rt":1355.7099997997284,"stimulus":"","button_pressed":"4","reward_s01":-20,"reward_s02":-100,"feedback01":0,"feedback02":-100,"listcross":8,"trial_type":"html-button-response","trial_index":107,"time_elapsed":309160,"internal_node_id":"0.0-21.0-0.2"},{"rt":null,"stimulus":"<p style='position: absolute; top: 27%;right: 25%'><img src='img/s2.bmp' width='200px'/></p><p style='position: absolute; top: 31%;right: 27%;color: whilt;font-size: 45pt;'>￥0</p><p style='position: absolute; top: 48%;right: 25%'><img src='img/s2.bmp' width='200px'/></p><p style='position: absolute; top: 53%;right: 27%;color: whilt;font-size: 45pt;'>￥-100</p><p style='font-size: 48px'>+</p>","key_press":null,"trial_type":"html-keyboard-response","trial_index":108,"time_elapsed":313665,"internal_node_id":"0.0-21.0-1.2"},{"rt":null,"stimulus":"<p style='position: absolute; top: 48%;right: 25%'><img src='img/s2.bmp' width='200px'/></p><p style='position: absolute; top: 53%;right: 27%;color: whilt;font-size: 45pt;'>￥-100</p><p style='font-size: 48px'>+</p>","key_press":null,"trial_type":"html-keyboard-response","trial_index":109,"time_elapsed":314673,"internal_node_id":"0.0-21.0-2.2"},{"rt":null,"stimulus":"<p style='font-size: 48px'>+</p>","key_press":null,"trial_type":"html-keyboard-response","trial_index":110,"time_elapsed":316775,"internal_node_id":"0.0-21.0-3.2"},{"rt":null,"stimulus":"<p>请您告诉我你现在的心情</p>","key_press":null,"trial_type":"html-keyboard-response","trial_index":111,"time_elapsed":318777,"internal_node_id":"0.0-22.0-0.0"},{"rt":1586.5000002086163,"response":"50","stimulus":"<p>请您告诉我你现在的心情</p>","trial_type":"html-slider-response","trial_index":112,"time_elapsed":320365,"internal_node_id":"0.0-22.0-1.0"},{"rt":null,"stimulus":"<p style=\"font-size: 48px\">+</p>","key_press":null,"trial_type":"html-keyboard-response","trial_index":113,"time_elapsed":327368,"internal_node_id":"0.0-22.0-2.0"},{"rt":1740.3349997475743,"stimulus":"","button_pressed":"1","reward_s01":-50,"reward_s02":-250,"feedback01":0,"feedback02":-250,"listcross":6,"trial_type":"html-button-response","trial_index":114,"time_elapsed":329124,"internal_node_id":"0.0-23.0-0.0"},{"rt":null,"stimulus":"<p style='position: absolute; top: 38%;left: 25%'><img src='img/s2.bmp' width='200px'/></p><p style='position: absolute; top: 42%;left: 28%;color: whilt;font-size: 45pt;'>￥-50</p><p style='font-size: 48px'>+</p>","key_press":null,"trial_type":"html-keyboard-response","trial_index":115,"time_elapsed":333628,"internal_node_id":"0.0-23.0-1.0"},{"rt":null,"stimulus":"<p style='position: absolute; top: 38%;left: 25%'><img src='img/s2.bmp' width='200px'/></p><p style='position: absolute; top: 42%;left: 28%;color: whilt;font-size: 45pt;'>￥-50</p><p style='font-size: 48px'>+</p>","key_press":null,"trial_type":"html-keyboard-response","trial_index":116,"time_elapsed":334636,"internal_node_id":"0.0-23.0-2.0"},{"rt":null,"stimulus":"<p style='font-size: 48px'>+</p>","key_press":null,"trial_type":"html-keyboard-response","trial_index":117,"time_elapsed":337438,"internal_node_id":"0.0-23.0-3.0"},{"rt":1465.6899999827147,"stimulus":"","button_pressed":"4","reward_s01":40,"reward_s02":0,"feedback01":67.2,"feedback02":0,"listcross":11,"trial_type":"html-button-response","trial_index":118,"time_elapsed":338919,"internal_node_id":"0.0-23.0-0.1"},{"rt":null,"stimulus":"<p style='position: absolute; top: 27%;right: 25%'><img src='img/s2.bmp' width='200px'/></p><p style='position: absolute; top: 31%;right: 27%;color: whilt;font-size: 45pt;'>￥67.2</p><p style='position: absolute; top: 48%;right: 25%'><img src='img/s2.bmp' width='200px'/></p><p style='position: absolute; top: 53%;right: 27%;color: whilt;font-size: 45pt;'>￥0</p><p style='font-size: 48px'>+</p>","key_press":null,"trial_type":"html-keyboard-response","trial_index":119,"time_elapsed":343424,"internal_node_id":"0.0-23.0-1.1"},{"rt":null,"stimulus":"<p style='position: absolute; top: 48%;right: 25%'><img src='img/s2.bmp' width='200px'/></p><p style='position: absolute; top: 53%;right: 27%;color: whilt;font-size: 45pt;'>￥0</p><p style='font-size: 48px'>+</p>","key_press":null,"trial_type":"html-keyboard-response","trial_index":120,"time_elapsed":344433,"internal_node_id":"0.0-23.0-2.1"},{"rt":null,"stimulus":"<p style='font-size: 48px'>+</p>","key_press":null,"trial_type":"html-keyboard-response","trial_index":121,"time_elapsed":347234,"internal_node_id":"0.0-23.0-3.1"},{"rt":1399.2849998176098,"stimulus":"","button_pressed":"4","reward_s01":50,"reward_s02":0,"feedback01":180,"feedback02":0,"listcross":7,"trial_type":"html-button-response","trial_index":122,"time_elapsed":348650,"internal_node_id":"0.0-23.0-0.2"},{"rt":null,"stimulus":"<p style='position: absolute; top: 27%;right: 25%'><img src='img/s2.bmp' width='200px'/></p><p style='position: absolute; top: 31%;right: 27%;color: whilt;font-size: 45pt;'>￥180</p><p style='position: absolute; top: 48%;right: 25%'><img src='img/s2.bmp' width='200px'/></p><p style='position: absolute; top: 53%;right: 27%;color: whilt;font-size: 45pt;'>￥0</p><p style='font-size: 48px'>+</p>","key_press":null,"trial_type":"html-keyboard-response","trial_index":123,"time_elapsed":353169,"internal_node_id":"0.0-23.0-1.2"},{"rt":null,"stimulus":"<p style='position: absolute; top: 48%;right: 25%'><img src='img/s2.bmp' width='200px'/></p><p style='position: absolute; top: 53%;right: 27%;color: whilt;font-size: 45pt;'>￥0</p><p style='font-size: 48px'>+</p>","key_press":null,"trial_type":"html-keyboard-response","trial_index":124,"time_elapsed":354179,"internal_node_id":"0.0-23.0-2.2"},{"rt":null,"stimulus":"<p style='font-size: 48px'>+</p>","key_press":null,"trial_type":"html-keyboard-response","trial_index":125,"time_elapsed":357681,"internal_node_id":"0.0-23.0-3.2"},{"rt":null,"stimulus":"<p>请您告诉我你现在的心情</p>","key_press":null,"trial_type":"html-keyboard-response","trial_index":126,"time_elapsed":359684,"internal_node_id":"0.0-24.0-0.0"},{"rt":2378.2299999147654,"response":"57","stimulus":"<p>请您告诉我你现在的心情</p>","trial_type":"html-slider-response","trial_index":127,"time_elapsed":362063,"internal_node_id":"0.0-24.0-1.0"},{"rt":null,"stimulus":"<p style=\"font-size: 48px\">+</p>","key_press":null,"trial_type":"html-keyboard-response","trial_index":128,"time_elapsed":365565,"internal_node_id":"0.0-24.0-2.0"},{"rt":2031.3550001010299,"stimulus":"","button_pressed":"1","reward_s01":0,"reward_s02":-30,"feedback01":30,"feedback02":-30,"listcross":4,"trial_type":"html-button-response","trial_index":129,"time_elapsed":367612,"internal_node_id":"0.0-25.0-0.0"},{"rt":null,"stimulus":"<p style='position: absolute; top: 38%;left: 25%'><img src='img/s2.bmp' width='200px'/></p><p style='position: absolute; top: 42%;left: 28%;color: whilt;font-size: 45pt;'>￥0</p><p style='font-size: 48px'>+</p>","key_press":null,"trial_type":"html-keyboard-response","trial_index":130,"time_elapsed":372116,"internal_node_id":"0.0-25.0-1.0"},{"rt":null,"stimulus":"<p style='position: absolute; top: 38%;left: 25%'><img src='img/s2.bmp' width='200px'/></p><p style='position: absolute; top: 42%;left: 28%;color: whilt;font-size: 45pt;'>￥0</p><p style='font-size: 48px'>+</p>","key_press":null,"trial_type":"html-keyboard-response","trial_index":131,"time_elapsed":373122,"internal_node_id":"0.0-25.0-2.0"},{"rt":null,"stimulus":"<p style='font-size: 48px'>+</p>","key_press":null,"trial_type":"html-keyboard-response","trial_index":132,"time_elapsed":378026,"internal_node_id":"0.0-25.0-3.0"},{"rt":1586.0199993476272,"stimulus":"","button_pressed":"1","reward_s01":50,"reward_s02":91,"feedback01":91,"feedback02":0,"listcross":7,"trial_type":"html-button-response","trial_index":133,"time_elapsed":379624,"internal_node_id":"0.0-25.0-0.1"},{"rt":null,"stimulus":"<p style='position: absolute; top: 38%;left: 25%'><img src='img/s2.bmp' width='200px'/></p><p style='position: absolute; top: 42%;left: 28%;color: whilt;font-size: 45pt;'>￥50</p><p style='font-size: 48px'>+</p>","key_press":null,"trial_type":"html-keyboard-response","trial_index":134,"time_elapsed":384128,"internal_node_id":"0.0-25.0-1.1"},{"rt":null,"stimulus":"<p style='position: absolute; top: 38%;left: 25%'><img src='img/s2.bmp' width='200px'/></p><p style='position: absolute; top: 42%;left: 28%;color: whilt;font-size: 45pt;'>￥50</p><p style='font-size: 48px'>+</p>","key_press":null,"trial_type":"html-keyboard-response","trial_index":135,"time_elapsed":385136,"internal_node_id":"0.0-25.0-2.1"},{"rt":null,"stimulus":"<p style='font-size: 48px'>+</p>","key_press":null,"trial_type":"html-keyboard-response","trial_index":136,"time_elapsed":387239,"internal_node_id":"0.0-25.0-3.1"},{"rt":null,"stimulus":"<p>请您告诉我你现在的心情</p>","key_press":null,"trial_type":"html-keyboard-response","trial_index":137,"time_elapsed":389241,"internal_node_id":"0.0-26.0-0.0"},{"rt":1963.409999385476,"response":"65","stimulus":"<p>请您告诉我你现在的心情</p>","trial_type":"html-slider-response","trial_index":138,"time_elapsed":391206,"internal_node_id":"0.0-26.0-1.0"},{"rt":null,"stimulus":"<p style=\"font-size: 48px\">+</p>","key_press":null,"trial_type":"html-keyboard-response","trial_index":139,"time_elapsed":394007,"internal_node_id":"0.0-26.0-2.0"},{"rt":2057.130000554025,"stimulus":"","button_pressed":"1","reward_s01":0,"reward_s02":180,"feedback01":180,"feedback02":-180,"listcross":5,"trial_type":"html-button-response","trial_index":140,"time_elapsed":396080,"internal_node_id":"0.0-27.0-0.0"},{"rt":null,"stimulus":"<p style='position: absolute; top: 38%;left: 25%'><img src='img/s2.bmp' width='200px'/></p><p style='position: absolute; top: 42%;left: 28%;color: whilt;font-size: 45pt;'>￥0</p><p style='font-size: 48px'>+</p>","key_press":null,"trial_type":"html-keyboard-response","trial_index":141,"time_elapsed":400584,"internal_node_id":"0.0-27.0-1.0"},{"rt":null,"stimulus":"<p style='position: absolute; top: 38%;left: 25%'><img src='img/s2.bmp' width='200px'/></p><p style='position: absolute; top: 42%;left: 28%;color: whilt;font-size: 45pt;'>￥0</p><p style='font-size: 48px'>+</p>","key_press":null,"trial_type":"html-keyboard-response","trial_index":142,"time_elapsed":401593,"internal_node_id":"0.0-27.0-2.0"},{"rt":null,"stimulus":"<p style='font-size: 48px'>+</p>","key_press":null,"trial_type":"html-keyboard-response","trial_index":143,"time_elapsed":407195,"internal_node_id":"0.0-27.0-3.0"},{"rt":null,"stimulus":"","button_pressed":null,"reward_s01":-30,"reward_s02":-126,"feedback01":0,"feedback02":-126,"listcross":3,"trial_type":"html-button-response","trial_index":144,"time_elapsed":410212,"internal_node_id":"0.0-27.0-0.1"},{"rt":null,"stimulus":"<p style='position: absolute; top: 48%;right: 25%'><img src='img/s2.bmp' width='200px'/></p><p style='position: absolute; top: 53%;right: 27%;color: whilt;font-size: 45pt;'>￥-126</p><p style='font-size: 48px'>+</p>","key_press":null,"trial_type":"html-keyboard-response","trial_index":145,"time_elapsed":414720,"internal_node_id":"0.0-27.0-1.1"},{"rt":null,"stimulus":"<p style='position: absolute; top: 48%;right: 25%'><img src='img/s2.bmp' width='200px'/></p><p style='position: absolute; top: 53%;right: 27%;color: whilt;font-size: 45pt;'>￥-126</p><p style='font-size: 48px'>+</p>","key_press":null,"trial_type":"html-keyboard-response","trial_index":146,"time_elapsed":415729,"internal_node_id":"0.0-27.0-2.1"},{"rt":null,"stimulus":"<p style='font-size: 48px'>+</p>","key_press":null,"trial_type":"html-keyboard-response","trial_index":147,"time_elapsed":419231,"internal_node_id":"0.0-27.0-3.1"},{"rt":null,"stimulus":"<p>请您告诉我你现在的心情</p>","key_press":null,"trial_type":"html-keyboard-response","trial_index":148,"time_elapsed":421233,"internal_node_id":"0.0-28.0-0.0"},{"rt":1608.8150003924966,"response":"18","stimulus":"<p>请您告诉我你现在的心情</p>","trial_type":"html-slider-response","trial_index":149,"time_elapsed":422843,"internal_node_id":"0.0-28.0-1.0"},{"rt":null,"stimulus":"<p style=\"font-size: 48px\">+</p>","key_press":null,"trial_type":"html-keyboard-response","trial_index":150,"time_elapsed":426346,"internal_node_id":"0.0-28.0-2.0"},{"rt":1611.6450000554323,"stimulus":"","button_pressed":"4","reward_s01":-50,"reward_s02":-180,"feedback01":0,"feedback02":-180,"listcross":3,"trial_type":"html-button-response","trial_index":151,"time_elapsed":427973,"internal_node_id":"0.0-29.0-0.0"},{"rt":null,"stimulus":"<p style='position: absolute; top: 27%;right: 25%'><img src='img/s2.bmp' width='200px'/></p><p style='position: absolute; top: 31%;right: 27%;color: whilt;font-size: 45pt;'>￥0</p><p style='position: absolute; top: 48%;right: 25%'><img src='img/s2.bmp' width='200px'/></p><p style='position: absolute; top: 53%;right: 27%;color: whilt;font-size: 45pt;'>￥-180</p><p style='font-size: 48px'>+</p>","key_press":null,"trial_type":"html-keyboard-response","trial_index":152,"time_elapsed":432478,"internal_node_id":"0.0-29.0-1.0"},{"rt":null,"stimulus":"<p style='position: absolute; top: 48%;right: 25%'><img src='img/s2.bmp' width='200px'/></p><p style='position: absolute; top: 53%;right: 27%;color: whilt;font-size: 45pt;'>￥-180</p><p style='font-size: 48px'>+</p>","key_press":null,"trial_type":"html-keyboard-response","trial_index":153,"time_elapsed":433483,"internal_node_id":"0.0-29.0-2.0"},{"rt":null,"stimulus":"<p style='font-size: 48px'>+</p>","key_press":null,"trial_type":"html-keyboard-response","trial_index":154,"time_elapsed":439086,"internal_node_id":"0.0-29.0-3.0"},{"rt":2139.4349997863173,"stimulus":"","button_pressed":"4","reward_s01":-30,"reward_s02":0,"feedback01":0,"feedback02":-74.4,"listcross":7,"trial_type":"html-button-response","trial_index":155,"time_elapsed":441240,"internal_node_id":"0.0-29.0-0.1"},{"rt":null,"stimulus":"<p style='position: absolute; top: 27%;right: 25%'><img src='img/s2.bmp' width='200px'/></p><p style='position: absolute; top: 31%;right: 27%;color: whilt;font-size: 45pt;'>￥0</p><p style='position: absolute; top: 48%;right: 25%'><img src='img/s2.bmp' width='200px'/></p><p style='position: absolute; top: 53%;right: 27%;color: whilt;font-size: 45pt;'>￥-74.4</p><p style='font-size: 48px'>+</p>","key_press":null,"trial_type":"html-keyboard-response","trial_index":156,"time_elapsed":445750,"internal_node_id":"0.0-29.0-1.1"},{"rt":null,"stimulus":"<p style='position: absolute; top: 27%;right: 25%'><img src='img/s2.bmp' width='200px'/></p><p style='position: absolute; top: 31%;right: 27%;color: whilt;font-size: 45pt;'>￥0</p><p style='font-size: 48px'>+</p>","key_press":null,"trial_type":"html-keyboard-response","trial_index":157,"time_elapsed":446758,"internal_node_id":"0.0-29.0-2.1"},{"rt":null,"stimulus":"<p style='font-size: 48px'>+</p>","key_press":null,"trial_type":"html-keyboard-response","trial_index":158,"time_elapsed":450960,"internal_node_id":"0.0-29.0-3.1"},{"rt":null,"stimulus":"<p>请您告诉我你现在的心情</p>","key_press":null,"trial_type":"html-keyboard-response","trial_index":159,"time_elapsed":452962,"internal_node_id":"0.0-30.0-0.0"},{"rt":2130.329999141395,"response":"38","stimulus":"<p>请您告诉我你现在的心情</p>","trial_type":"html-slider-response","trial_index":160,"time_elapsed":455093,"internal_node_id":"0.0-30.0-1.0"},{"rt":null,"stimulus":"<p style=\"font-size: 48px\">+</p>","key_press":null,"trial_type":"html-keyboard-response","trial_index":161,"time_elapsed":460695,"internal_node_id":"0.0-30.0-2.0"},{"rt":1601.8249997869134,"stimulus":"","button_pressed":"4","reward_s01":0,"reward_s02":-165,"feedback01":165,"feedback02":-165,"listcross":5,"trial_type":"html-button-response","trial_index":162,"time_elapsed":462313,"internal_node_id":"0.0-31.0-0.0"},{"rt":null,"stimulus":"<p style='position: absolute; top: 27%;right: 25%'><img src='img/s2.bmp' width='200px'/></p><p style='position: absolute; top: 31%;right: 27%;color: whilt;font-size: 45pt;'>￥165</p><p style='position: absolute; top: 48%;right: 25%'><img src='img/s2.bmp' width='200px'/></p><p style='position: absolute; top: 53%;right: 27%;color: whilt;font-size: 45pt;'>￥-165</p><p style='font-size: 48px'>+</p>","key_press":null,"trial_type":"html-keyboard-response","trial_index":163,"time_elapsed":466819,"internal_node_id":"0.0-31.0-1.0"},{"rt":null,"stimulus":"<p style='position: absolute; top: 48%;right: 25%'><img src='img/s2.bmp' width='200px'/></p><p style='position: absolute; top: 53%;right: 27%;color: whilt;font-size: 45pt;'>￥-165</p><p style='font-size: 48px'>+</p>","key_press":null,"trial_type":"html-keyboard-response","trial_index":164,"time_elapsed":467826,"internal_node_id":"0.0-31.0-2.0"},{"rt":null,"stimulus":"<p style='font-size: 48px'>+</p>","key_press":null,"trial_type":"html-keyboard-response","trial_index":165,"time_elapsed":469928,"internal_node_id":"0.0-31.0-3.0"},{"rt":1920.5600004643202,"stimulus":"","button_pressed":"1","reward_s01":40,"reward_s02":0,"feedback01":88,"feedback02":0,"listcross":8,"trial_type":"html-button-response","trial_index":166,"time_elapsed":471866,"internal_node_id":"0.0-31.0-0.1"},{"rt":null,"stimulus":"<p style='position: absolute; top: 38%;left: 25%'><img src='img/s2.bmp' width='200px'/></p><p style='position: absolute; top: 42%;left: 28%;color: whilt;font-size: 45pt;'>￥40</p><p style='font-size: 48px'>+</p>","key_press":null,"trial_type":"html-keyboard-response","trial_index":167,"time_elapsed":476370,"internal_node_id":"0.0-31.0-1.1"},{"rt":null,"stimulus":"<p style='position: absolute; top: 38%;left: 25%'><img src='img/s2.bmp' width='200px'/></p><p style='position: absolute; top: 42%;left: 28%;color: whilt;font-size: 45pt;'>￥40</p><p style='font-size: 48px'>+</p>","key_press":null,"trial_type":"html-keyboard-response","trial_index":168,"time_elapsed":477380,"internal_node_id":"0.0-31.0-2.1"},{"rt":null,"stimulus":"<p style='font-size: 48px'>+</p>","key_press":null,"trial_type":"html-keyboard-response","trial_index":169,"time_elapsed":481581,"internal_node_id":"0.0-31.0-3.1"},{"rt":null,"stimulus":"<p>请您告诉我你现在的心情</p>","key_press":null,"trial_type":"html-keyboard-response","trial_index":170,"time_elapsed":483583,"internal_node_id":"0.0-32.0-0.0"},{"rt":2590.224999934435,"response":"38","stimulus":"<p>请您告诉我你现在的心情</p>","trial_type":"html-slider-response","trial_index":171,"time_elapsed":486175,"internal_node_id":"0.0-32.0-1.0"},{"rt":null,"stimulus":"<p style=\"font-size: 48px\">+</p>","key_press":null,"trial_type":"html-keyboard-response","trial_index":172,"time_elapsed":488277,"internal_node_id":"0.0-32.0-2.0"},{"rt":1871.5049996972084,"stimulus":"","button_pressed":"4","reward_s01":-40,"reward_s02":-88.8,"feedback01":0,"feedback02":-88.8,"listcross":4,"trial_type":"html-button-response","trial_index":173,"time_elapsed":490165,"internal_node_id":"0.0-33.0-0.0"},{"rt":null,"stimulus":"<p style='position: absolute; top: 27%;right: 25%'><img src='img/s2.bmp' width='200px'/></p><p style='position: absolute; top: 31%;right: 27%;color: whilt;font-size: 45pt;'>￥0</p><p style='position: absolute; top: 48%;right: 25%'><img src='img/s2.bmp' width='200px'/></p><p style='position: absolute; top: 53%;right: 27%;color: whilt;font-size: 45pt;'>￥-88.8</p><p style='font-size: 48px'>+</p>","key_press":null,"trial_type":"html-keyboard-response","trial_index":174,"time_elapsed":494671,"internal_node_id":"0.0-33.0-1.0"},{"rt":null,"stimulus":"<p style='position: absolute; top: 48%;right: 25%'><img src='img/s2.bmp' width='200px'/></p><p style='position: absolute; top: 53%;right: 27%;color: whilt;font-size: 45pt;'>￥-88.8</p><p style='font-size: 48px'>+</p>","key_press":null,"trial_type":"html-keyboard-response","trial_index":175,"time_elapsed":495678,"internal_node_id":"0.0-33.0-2.0"},{"rt":null,"stimulus":"<p style='font-size: 48px'>+</p>","key_press":null,"trial_type":"html-keyboard-response","trial_index":176,"time_elapsed":498480,"internal_node_id":"0.0-33.0-3.0"},{"rt":1366.7400004342198,"stimulus":"","button_pressed":"1","reward_s01":60,"reward_s02":168,"feedback01":168,"feedback02":0,"listcross":3,"trial_type":"html-button-response","trial_index":177,"time_elapsed":499859,"internal_node_id":"0.0-33.0-0.1"},{"rt":null,"stimulus":"<p style='position: absolute; top: 38%;left: 25%'><img src='img/s2.bmp' width='200px'/></p><p style='position: absolute; top: 42%;left: 28%;color: whilt;font-size: 45pt;'>￥60</p><p style='font-size: 48px'>+</p>","key_press":null,"trial_type":"html-keyboard-response","trial_index":178,"time_elapsed":504363,"internal_node_id":"0.0-33.0-1.1"},{"rt":null,"stimulus":"<p style='position: absolute; top: 38%;left: 25%'><img src='img/s2.bmp' width='200px'/></p><p style='position: absolute; top: 42%;left: 28%;color: whilt;font-size: 45pt;'>￥60</p><p style='font-size: 48px'>+</p>","key_press":null,"trial_type":"html-keyboard-response","trial_index":179,"time_elapsed":505366,"internal_node_id":"0.0-33.0-2.1"},{"rt":null,"stimulus":"<p style='font-size: 48px'>+</p>","key_press":null,"trial_type":"html-keyboard-response","trial_index":180,"time_elapsed":510269,"internal_node_id":"0.0-33.0-3.1"},{"rt":1257.1000000461936,"stimulus":"","button_pressed":"1","reward_s01":20,"reward_s02":84,"feedback01":84,"feedback02":0,"listcross":3,"trial_type":"html-button-response","trial_index":181,"time_elapsed":511541,"internal_node_id":"0.0-33.0-0.2"},{"rt":null,"stimulus":"<p style='position: absolute; top: 38%;left: 25%'><img src='img/s2.bmp' width='200px'/></p><p style='position: absolute; top: 42%;left: 28%;color: whilt;font-size: 45pt;'>￥20</p><p style='font-size: 48px'>+</p>","key_press":null,"trial_type":"html-keyboard-response","trial_index":182,"time_elapsed":516046,"internal_node_id":"0.0-33.0-1.2"},{"rt":null,"stimulus":"<p style='position: absolute; top: 38%;left: 25%'><img src='img/s2.bmp' width='200px'/></p><p style='position: absolute; top: 42%;left: 28%;color: whilt;font-size: 45pt;'>￥20</p><p style='font-size: 48px'>+</p>","key_press":null,"trial_type":"html-keyboard-response","trial_index":183,"time_elapsed":517048,"internal_node_id":"0.0-33.0-2.2"},{"rt":null,"stimulus":"<p style='font-size: 48px'>+</p>","key_press":null,"trial_type":"html-keyboard-response","trial_index":184,"time_elapsed":520550,"internal_node_id":"0.0-33.0-3.2"},{"rt":null,"stimulus":"<p>请您告诉我你现在的心情</p>","key_press":null,"trial_type":"html-keyboard-response","trial_index":185,"time_elapsed":522552,"internal_node_id":"0.0-34.0-0.0"},{"rt":1525.7500000298023,"response":"50","stimulus":"<p>请您告诉我你现在的心情</p>","trial_type":"html-slider-response","trial_index":186,"time_elapsed":524079,"internal_node_id":"0.0-34.0-1.0"},{"rt":null,"stimulus":"<p style=\"font-size: 48px\">+</p>","key_press":null,"trial_type":"html-keyboard-response","trial_index":187,"time_elapsed":528981,"internal_node_id":"0.0-34.0-2.0"},{"rt":1031.0399997979403,"stimulus":"","button_pressed":"1","reward_s01":40,"reward_s02":0,"feedback01":112,"feedback02":0,"listcross":3,"trial_type":"html-button-response","trial_index":188,"time_elapsed":530021,"internal_node_id":"0.0-35.0-0.0"},{"rt":null,"stimulus":"<p style='position: absolute; top: 38%;left: 25%'><img src='img/s2.bmp' width='200px'/></p><p style='position: absolute; top: 42%;left: 28%;color: whilt;font-size: 45pt;'>￥40</p><p style='font-size: 48px'>+</p>","key_press":null,"trial_type":"html-keyboard-response","trial_index":189,"time_elapsed":534524,"internal_node_id":"0.0-35.0-1.0"},{"rt":null,"stimulus":"<p style='position: absolute; top: 38%;left: 25%'><img src='img/s2.bmp' width='200px'/></p><p style='position: absolute; top: 42%;left: 28%;color: whilt;font-size: 45pt;'>￥40</p><p style='font-size: 48px'>+</p>","key_press":null,"trial_type":"html-keyboard-response","trial_index":190,"time_elapsed":535531,"internal_node_id":"0.0-35.0-2.0"},{"rt":null,"stimulus":"<p style='font-size: 48px'>+</p>","key_press":null,"trial_type":"html-keyboard-response","trial_index":191,"time_elapsed":539033,"internal_node_id":"0.0-35.0-3.0"},{"rt":2076.5150003135204,"stimulus":"","button_pressed":"1","reward_s01":-40,"reward_s02":0,"feedback01":0,"feedback02":-112,"listcross":3,"trial_type":"html-button-response","trial_index":192,"time_elapsed":541125,"internal_node_id":"0.0-35.0-0.1"},{"rt":null,"stimulus":"<p style='position: absolute; top: 38%;left: 25%'><img src='img/s2.bmp' width='200px'/></p><p style='position: absolute; top: 42%;left: 28%;color: whilt;font-size: 45pt;'>￥-40</p><p style='font-size: 48px'>+</p>","key_press":null,"trial_type":"html-keyboard-response","trial_index":193,"time_elapsed":545630,"internal_node_id":"0.0-35.0-1.1"},{"rt":null,"stimulus":"<p style='position: absolute; top: 38%;left: 25%'><img src='img/s2.bmp' width='200px'/></p><p style='position: absolute; top: 42%;left: 28%;color: whilt;font-size: 45pt;'>￥-40</p><p style='font-size: 48px'>+</p>","key_press":null,"trial_type":"html-keyboard-response","trial_index":194,"time_elapsed":546638,"internal_node_id":"0.0-35.0-2.1"},{"rt":null,"stimulus":"<p style='font-size: 48px'>+</p>","key_press":null,"trial_type":"html-keyboard-response","trial_index":195,"time_elapsed":549441,"internal_node_id":"0.0-35.0-3.1"},{"rt":1701.049999333918,"stimulus":"","button_pressed":"1","reward_s01":20,"reward_s02":56,"feedback01":56,"feedback02":0,"listcross":7,"trial_type":"html-button-response","trial_index":196,"time_elapsed":551158,"internal_node_id":"0.0-35.0-0.2"},{"rt":null,"stimulus":"<p style='position: absolute; top: 38%;left: 25%'><img src='img/s2.bmp' width='200px'/></p><p style='position: absolute; top: 42%;left: 28%;color: whilt;font-size: 45pt;'>￥20</p><p style='font-size: 48px'>+</p>","key_press":null,"trial_type":"html-keyboard-response","trial_index":197,"time_elapsed":555662,"internal_node_id":"0.0-35.0-1.2"},{"rt":null,"stimulus":"<p style='position: absolute; top: 38%;left: 25%'><img src='img/s2.bmp' width='200px'/></p><p style='position: absolute; top: 42%;left: 28%;color: whilt;font-size: 45pt;'>￥20</p><p style='font-size: 48px'>+</p>","key_press":null,"trial_type":"html-keyboard-response","trial_index":198,"time_elapsed":556670,"internal_node_id":"0.0-35.0-2.2"},{"rt":null,"stimulus":"<p style='font-size: 48px'>+</p>","key_press":null,"trial_type":"html-keyboard-response","trial_index":199,"time_elapsed":560172,"internal_node_id":"0.0-35.0-3.2"},{"rt":null,"stimulus":"<p>请您告诉我你现在的心情</p>","key_press":null,"trial_type":"html-keyboard-response","trial_index":200,"time_elapsed":562174,"internal_node_id":"0.0-36.0-0.0"},{"rt":2915.9949999302626,"response":"35","stimulus":"<p>请您告诉我你现在的心情</p>","trial_type":"html-slider-response","trial_index":201,"time_elapsed":565092,"internal_node_id":"0.0-36.0-1.0"},{"rt":null,"stimulus":"<p style=\"font-size: 48px\">+</p>","key_press":null,"trial_type":"html-keyboard-response","trial_index":202,"time_elapsed":569295,"internal_node_id":"0.0-36.0-2.0"},{"rt":1559.2750003561378,"stimulus":"","button_pressed":"4","reward_s01":40,"reward_s02":200,"feedback01":200,"feedback02":0,"listcross":5,"trial_type":"html-button-response","trial_index":203,"time_elapsed":570869,"internal_node_id":"0.0-37.0-0.0"},{"rt":null,"stimulus":"<p style='position: absolute; top: 27%;right: 25%'><img src='img/s2.bmp' width='200px'/></p><p style='position: absolute; top: 31%;right: 27%;color: whilt;font-size: 45pt;'>￥200</p><p style='position: absolute; top: 48%;right: 25%'><img src='img/s2.bmp' width='200px'/></p><p style='position: absolute; top: 53%;right: 27%;color: whilt;font-size: 45pt;'>￥0</p><p style='font-size: 48px'>+</p>","key_press":null,"trial_type":"html-keyboard-response","trial_index":204,"time_elapsed":575375,"internal_node_id":"0.0-37.0-1.0"},{"rt":null,"stimulus":"<p style='position: absolute; top: 27%;right: 25%'><img src='img/s2.bmp' width='200px'/></p><p style='position: absolute; top: 31%;right: 27%;color: whilt;font-size: 45pt;'>￥200</p><p style='font-size: 48px'>+</p>","key_press":null,"trial_type":"html-keyboard-response","trial_index":205,"time_elapsed":576382,"internal_node_id":"0.0-37.0-2.0"},{"rt":null,"stimulus":"<p style='font-size: 48px'>+</p>","key_press":null,"trial_type":"html-keyboard-response","trial_index":206,"time_elapsed":578485,"internal_node_id":"0.0-37.0-3.0"},{"rt":2616.3900000974536,"stimulus":"","button_pressed":"4","reward_s01":-50,"reward_s02":-124,"feedback01":0,"feedback02":-124,"listcross":3,"trial_type":"html-button-response","trial_index":207,"time_elapsed":581117,"internal_node_id":"0.0-37.0-0.1"},{"rt":null,"stimulus":"<p style='position: absolute; top: 27%;right: 25%'><img src='img/s2.bmp' width='200px'/></p><p style='position: absolute; top: 31%;right: 27%;color: whilt;font-size: 45pt;'>￥0</p><p style='position: absolute; top: 48%;right: 25%'><img src='img/s2.bmp' width='200px'/></p><p style='position: absolute; top: 53%;right: 27%;color: whilt;font-size: 45pt;'>￥-124</p><p style='font-size: 48px'>+</p>","key_press":null,"trial_type":"html-keyboard-response","trial_index":208,"time_elapsed":585623,"internal_node_id":"0.0-37.0-1.1"},{"rt":null,"stimulus":"<p style='position: absolute; top: 48%;right: 25%'><img src='img/s2.bmp' width='200px'/></p><p style='position: absolute; top: 53%;right: 27%;color: whilt;font-size: 45pt;'>￥-124</p><p style='font-size: 48px'>+</p>","key_press":null,"trial_type":"html-keyboard-response","trial_index":209,"time_elapsed":586630,"internal_node_id":"0.0-37.0-2.1"},{"rt":null,"stimulus":"<p style='font-size: 48px'>+</p>","key_press":null,"trial_type":"html-keyboard-response","trial_index":210,"time_elapsed":591543,"internal_node_id":"0.0-37.0-3.1"},{"rt":1454.3449999764562,"stimulus":"","button_pressed":"1","reward_s01":0,"reward_s02":19.8,"feedback01":19.8,"feedback02":-19.8,"listcross":7,"trial_type":"html-button-response","trial_index":211,"time_elapsed":593013,"internal_node_id":"0.0-37.0-0.2"},{"rt":null,"stimulus":"<p style='position: absolute; top: 38%;left: 25%'><img src='img/s2.bmp' width='200px'/></p><p style='position: absolute; top: 42%;left: 28%;color: whilt;font-size: 45pt;'>￥0</p><p style='font-size: 48px'>+</p>","key_press":null,"trial_type":"html-keyboard-response","trial_index":212,"time_elapsed":597517,"internal_node_id":"0.0-37.0-1.2"},{"rt":null,"stimulus":"<p style='position: absolute; top: 38%;left: 25%'><img src='img/s2.bmp' width='200px'/></p><p style='position: absolute; top: 42%;left: 28%;color: whilt;font-size: 45pt;'>￥0</p><p style='font-size: 48px'>+</p>","key_press":null,"trial_type":"html-keyboard-response","trial_index":213,"time_elapsed":598524,"internal_node_id":"0.0-37.0-2.2"},{"rt":null,"stimulus":"<p style='font-size: 48px'>+</p>","key_press":null,"trial_type":"html-keyboard-response","trial_index":214,"time_elapsed":601327,"internal_node_id":"0.0-37.0-3.2"},{"rt":null,"stimulus":"<p>请您告诉我你现在的心情</p>","key_press":null,"trial_type":"html-keyboard-response","trial_index":215,"time_elapsed":603328,"internal_node_id":"0.0-38.0-0.0"},{"rt":2604.830000549555,"response":"62","stimulus":"<p>请您告诉我你现在的心情</p>","trial_type":"html-slider-response","trial_index":216,"time_elapsed":605935,"internal_node_id":"0.0-38.0-1.0"},{"rt":null,"stimulus":"<p style=\"font-size: 48px\">+</p>","key_press":null,"trial_type":"html-keyboard-response","trial_index":217,"time_elapsed":609437,"internal_node_id":"0.0-38.0-2.0"},{"rt":1521.794999949634,"stimulus":"","button_pressed":"1","reward_s01":20,"reward_s02":0,"feedback01":33.6,"feedback02":0,"listcross":6,"trial_type":"html-button-response","trial_index":218,"time_elapsed":610974,"internal_node_id":"0.0-39.0-0.0"},{"rt":null,"stimulus":"<p style='position: absolute; top: 38%;left: 25%'><img src='img/s2.bmp' width='200px'/></p><p style='position: absolute; top: 42%;left: 28%;color: whilt;font-size: 45pt;'>￥20</p><p style='font-size: 48px'>+</p>","key_press":null,"trial_type":"html-keyboard-response","trial_index":219,"time_elapsed":615478,"internal_node_id":"0.0-39.0-1.0"},{"rt":null,"stimulus":"<p style='position: absolute; top: 38%;left: 25%'><img src='img/s2.bmp' width='200px'/></p><p style='position: absolute; top: 42%;left: 28%;color: whilt;font-size: 45pt;'>￥20</p><p style='font-size: 48px'>+</p>","key_press":null,"trial_type":"html-keyboard-response","trial_index":220,"time_elapsed":616484,"internal_node_id":"0.0-39.0-2.0"},{"rt":null,"stimulus":"<p style='font-size: 48px'>+</p>","key_press":null,"trial_type":"html-keyboard-response","trial_index":221,"time_elapsed":623486,"internal_node_id":"0.0-39.0-3.0"},{"rt":1795.8749998360872,"stimulus":"","button_pressed":"1","reward_s01":0,"reward_s02":12,"feedback01":12,"feedback02":-12,"listcross":8,"trial_type":"html-button-response","trial_index":222,"time_elapsed":625298,"internal_node_id":"0.0-39.0-0.1"},{"rt":null,"stimulus":"<p style='position: absolute; top: 38%;left: 25%'><img src='img/s2.bmp' width='200px'/></p><p style='position: absolute; top: 42%;left: 28%;color: whilt;font-size: 45pt;'>￥0</p><p style='font-size: 48px'>+</p>","key_press":null,"trial_type":"html-keyboard-response","trial_index":223,"time_elapsed":629801,"internal_node_id":"0.0-39.0-1.1"},{"rt":null,"stimulus":"<p style='position: absolute; top: 38%;left: 25%'><img src='img/s2.bmp' width='200px'/></p><p style='position: absolute; top: 42%;left: 28%;color: whilt;font-size: 45pt;'>￥0</p><p style='font-size: 48px'>+</p>","key_press":null,"trial_type":"html-keyboard-response","trial_index":224,"time_elapsed":630803,"internal_node_id":"0.0-39.0-2.1"},{"rt":null,"stimulus":"<p style='font-size: 48px'>+</p>","key_press":null,"trial_type":"html-keyboard-response","trial_index":225,"time_elapsed":633606,"internal_node_id":"0.0-39.0-3.1"},{"rt":null,"stimulus":"<p>请您告诉我你现在的心情</p>","key_press":null,"trial_type":"html-keyboard-response","trial_index":226,"time_elapsed":635608,"internal_node_id":"0.0-40.0-0.0"},{"rt":2309.0949999168515,"response":"61","stimulus":"<p>请您告诉我你现在的心情</p>","trial_type":"html-slider-response","trial_index":227,"time_elapsed":637919,"internal_node_id":"0.0-40.0-1.0"},{"rt":null,"stimulus":"<p style=\"font-size: 48px\">+</p>","key_press":null,"trial_type":"html-keyboard-response","trial_index":228,"time_elapsed":640721,"internal_node_id":"0.0-40.0-2.0"},{"rt":2129.1300002485514,"stimulus":"","button_pressed":"4","reward_s01":0,"reward_s02":-132,"feedback01":132,"feedback02":-132,"listcross":4,"trial_type":"html-button-response","trial_index":229,"time_elapsed":642865,"internal_node_id":"0.0-41.0-0.0"},{"rt":null,"stimulus":"<p style='position: absolute; top: 27%;right: 25%'><img src='img/s2.bmp' width='200px'/></p><p style='position: absolute; top: 31%;right: 27%;color: whilt;font-size: 45pt;'>￥132</p><p style='position: absolute; top: 48%;right: 25%'><img src='img/s2.bmp' width='200px'/></p><p style='position: absolute; top: 53%;right: 27%;color: whilt;font-size: 45pt;'>￥-132</p><p style='font-size: 48px'>+</p>","key_press":null,"trial_type":"html-keyboard-response","trial_index":230,"time_elapsed":647371,"internal_node_id":"0.0-41.0-1.0"},{"rt":null,"stimulus":"<p style='position: absolute; top: 48%;right: 25%'><img src='img/s2.bmp' width='200px'/></p><p style='position: absolute; top: 53%;right: 27%;color: whilt;font-size: 45pt;'>￥-132</p><p style='font-size: 48px'>+</p>","key_press":null,"trial_type":"html-keyboard-response","trial_index":231,"time_elapsed":648379,"internal_node_id":"0.0-41.0-2.0"},{"rt":null,"stimulus":"<p style='font-size: 48px'>+</p>","key_press":null,"trial_type":"html-keyboard-response","trial_index":232,"time_elapsed":652581,"internal_node_id":"0.0-41.0-3.0"},{"rt":1668.3749994263053,"stimulus":"","button_pressed":"4","reward_s01":-40,"reward_s02":0,"feedback01":0,"feedback02":-99.2,"listcross":5,"trial_type":"html-button-response","trial_index":233,"time_elapsed":654265,"internal_node_id":"0.0-41.0-0.1"},{"rt":null,"stimulus":"<p style='position: absolute; top: 27%;right: 25%'><img src='img/s2.bmp' width='200px'/></p><p style='position: absolute; top: 31%;right: 27%;color: whilt;font-size: 45pt;'>￥0</p><p style='position: absolute; top: 48%;right: 25%'><img src='img/s2.bmp' width='200px'/></p><p style='position: absolute; top: 53%;right: 27%;color: whilt;font-size: 45pt;'>￥-99.2</p><p style='font-size: 48px'>+</p>","key_press":null,"trial_type":"html-keyboard-response","trial_index":234,"time_elapsed":658770,"internal_node_id":"0.0-41.0-1.1"},{"rt":null,"stimulus":"<p style='position: absolute; top: 27%;right: 25%'><img src='img/s2.bmp' width='200px'/></p><p style='position: absolute; top: 31%;right: 27%;color: whilt;font-size: 45pt;'>￥0</p><p style='font-size: 48px'>+</p>","key_press":null,"trial_type":"html-keyboard-response","trial_index":235,"time_elapsed":659778,"internal_node_id":"0.0-41.0-2.1"},{"rt":null,"stimulus":"<p style='font-size: 48px'>+</p>","key_press":null,"trial_type":"html-keyboard-response","trial_index":236,"time_elapsed":666080,"internal_node_id":"0.0-41.0-3.1"},{"rt":1931.989999487996,"stimulus":"","button_pressed":"4","reward_s01":0,"reward_s02":-225,"feedback01":225,"feedback02":-225,"listcross":5,"trial_type":"html-button-response","trial_index":237,"time_elapsed":668016,"internal_node_id":"0.0-41.0-0.2"},{"rt":null,"stimulus":"<p style='position: absolute; top: 27%;right: 25%'><img src='img/s2.bmp' width='200px'/></p><p style='position: absolute; top: 31%;right: 27%;color: whilt;font-size: 45pt;'>￥225</p><p style='position: absolute; top: 48%;right: 25%'><img src='img/s2.bmp' width='200px'/></p><p style='position: absolute; top: 53%;right: 27%;color: whilt;font-size: 45pt;'>￥-225</p><p style='font-size: 48px'>+</p>","key_press":null,"trial_type":"html-keyboard-response","trial_index":238,"time_elapsed":672521,"internal_node_id":"0.0-41.0-1.2"},{"rt":null,"stimulus":"<p style='position: absolute; top: 48%;right: 25%'><img src='img/s2.bmp' width='200px'/></p><p style='position: absolute; top: 53%;right: 27%;color: whilt;font-size: 45pt;'>￥-225</p><p style='font-size: 48px'>+</p>","key_press":null,"trial_type":"html-keyboard-response","trial_index":239,"time_elapsed":673529,"internal_node_id":"0.0-41.0-2.2"},{"rt":null,"stimulus":"<p style='font-size: 48px'>+</p>","key_press":null,"trial_type":"html-keyboard-response","trial_index":240,"time_elapsed":676331,"internal_node_id":"0.0-41.0-3.2"},{"rt":null,"stimulus":"<p>请您告诉我你现在的心情</p>","key_press":null,"trial_type":"html-keyboard-response","trial_index":241,"time_elapsed":678333,"internal_node_id":"0.0-42.0-0.0"},{"rt":2074.854999780655,"response":"39","stimulus":"<p>请您告诉我你现在的心情</p>","trial_type":"html-slider-response","trial_index":242,"time_elapsed":680410,"internal_node_id":"0.0-42.0-1.0"},{"rt":null,"stimulus":"<p style=\"font-size: 48px\">+</p>","key_press":null,"trial_type":"html-keyboard-response","trial_index":243,"time_elapsed":687412,"internal_node_id":"0.0-42.0-2.0"},{"rt":1102.8899997472763,"stimulus":"","button_pressed":"1","reward_s01":30,"reward_s02":0,"feedback01":84,"feedback02":0,"listcross":5,"trial_type":"html-button-response","trial_index":244,"time_elapsed":688531,"internal_node_id":"0.0-43.0-0.0"},{"rt":null,"stimulus":"<p style='position: absolute; top: 38%;left: 25%'><img src='img/s2.bmp' width='200px'/></p><p style='position: absolute; top: 42%;left: 28%;color: whilt;font-size: 45pt;'>￥30</p><p style='font-size: 48px'>+</p>","key_press":null,"trial_type":"html-keyboard-response","trial_index":245,"time_elapsed":693035,"internal_node_id":"0.0-43.0-1.0"},{"rt":null,"stimulus":"<p style='position: absolute; top: 38%;left: 25%'><img src='img/s2.bmp' width='200px'/></p><p style='position: absolute; top: 42%;left: 28%;color: whilt;font-size: 45pt;'>￥30</p><p style='font-size: 48px'>+</p>","key_press":null,"trial_type":"html-keyboard-response","trial_index":246,"time_elapsed":694044,"internal_node_id":"0.0-43.0-2.0"},{"rt":null,"stimulus":"<p style='font-size: 48px'>+</p>","key_press":null,"trial_type":"html-keyboard-response","trial_index":247,"time_elapsed":700345,"internal_node_id":"0.0-43.0-3.0"},{"rt":1012.3899998143315,"stimulus":"","button_pressed":"1","reward_s01":40,"reward_s02":0,"feedback01":72.8,"feedback02":0,"listcross":4,"trial_type":"html-button-response","trial_index":248,"time_elapsed":701370,"internal_node_id":"0.0-43.0-0.1"},{"rt":null,"stimulus":"<p style='position: absolute; top: 38%;left: 25%'><img src='img/s2.bmp' width='200px'/></p><p style='position: absolute; top: 42%;left: 28%;color: whilt;font-size: 45pt;'>￥40</p><p style='font-size: 48px'>+</p>","key_press":null,"trial_type":"html-keyboard-response","trial_index":249,"time_elapsed":705873,"internal_node_id":"0.0-43.0-1.1"},{"rt":null,"stimulus":"<p style='position: absolute; top: 38%;left: 25%'><img src='img/s2.bmp' width='200px'/></p><p style='position: absolute; top: 42%;left: 28%;color: whilt;font-size: 45pt;'>￥40</p><p style='font-size: 48px'>+</p>","key_press":null,"trial_type":"html-keyboard-response","trial_index":250,"time_elapsed":706881,"internal_node_id":"0.0-43.0-2.1"},{"rt":null,"stimulus":"<p style='font-size: 48px'>+</p>","key_press":null,"trial_type":"html-keyboard-response","trial_index":251,"time_elapsed":711083,"internal_node_id":"0.0-43.0-3.1"},{"rt":null,"stimulus":"<p>请您告诉我你现在的心情</p>","key_press":null,"trial_type":"html-keyboard-response","trial_index":252,"time_elapsed":713085,"internal_node_id":"0.0-44.0-0.0"},{"rt":2784.715000540018,"response":"61","stimulus":"<p>请您告诉我你现在的心情</p>","trial_type":"html-slider-response","trial_index":253,"time_elapsed":715870,"internal_node_id":"0.0-44.0-1.0"},{"rt":null,"stimulus":"<p style=\"font-size: 48px\">+</p>","key_press":null,"trial_type":"html-keyboard-response","trial_index":254,"time_elapsed":719372,"internal_node_id":"0.0-44.0-2.0"},{"rt":1563.1849998608232,"stimulus":"","button_pressed":"1","reward_s01":0,"reward_s02":-24,"feedback01":24,"feedback02":-24,"listcross":3,"trial_type":"html-button-response","trial_index":255,"time_elapsed":720951,"internal_node_id":"0.0-45.0-0.0"},{"rt":null,"stimulus":"<p style='position: absolute; top: 38%;left: 25%'><img src='img/s2.bmp' width='200px'/></p><p style='position: absolute; top: 42%;left: 28%;color: whilt;font-size: 45pt;'>￥0</p><p style='font-size: 48px'>+</p>","key_press":null,"trial_type":"html-keyboard-response","trial_index":256,"time_elapsed":725454,"internal_node_id":"0.0-45.0-1.0"},{"rt":null,"stimulus":"<p style='position: absolute; top: 38%;left: 25%'><img src='img/s2.bmp' width='200px'/></p><p style='position: absolute; top: 42%;left: 28%;color: whilt;font-size: 45pt;'>￥0</p><p style='font-size: 48px'>+</p>","key_press":null,"trial_type":"html-keyboard-response","trial_index":257,"time_elapsed":726462,"internal_node_id":"0.0-45.0-2.0"},{"rt":null,"stimulus":"<p style='font-size: 48px'>+</p>","key_press":null,"trial_type":"html-keyboard-response","trial_index":258,"time_elapsed":731365,"internal_node_id":"0.0-45.0-3.0"},{"rt":1550.6999995559454,"stimulus":"","button_pressed":"4","reward_s01":-40,"reward_s02":0,"feedback01":0,"feedback02":-144,"listcross":4,"trial_type":"html-button-response","trial_index":259,"time_elapsed":732933,"internal_node_id":"0.0-45.0-0.1"},{"rt":null,"stimulus":"<p style='position: absolute; top: 27%;right: 25%'><img src='img/s2.bmp' width='200px'/></p><p style='position: absolute; top: 31%;right: 27%;color: whilt;font-size: 45pt;'>￥0</p><p style='position: absolute; top: 48%;right: 25%'><img src='img/s2.bmp' width='200px'/></p><p style='position: absolute; top: 53%;right: 27%;color: whilt;font-size: 45pt;'>￥-144</p><p style='font-size: 48px'>+</p>","key_press":null,"trial_type":"html-keyboard-response","trial_index":260,"time_elapsed":737439,"internal_node_id":"0.0-45.0-1.1"},{"rt":null,"stimulus":"<p style='position: absolute; top: 27%;right: 25%'><img src='img/s2.bmp' width='200px'/></p><p style='position: absolute; top: 31%;right: 27%;color: whilt;font-size: 45pt;'>￥0</p><p style='font-size: 48px'>+</p>","key_press":null,"trial_type":"html-keyboard-response","trial_index":261,"time_elapsed":738447,"internal_node_id":"0.0-45.0-2.1"},{"rt":null,"stimulus":"<p style='font-size: 48px'>+</p>","key_press":null,"trial_type":"html-keyboard-response","trial_index":262,"time_elapsed":741948,"internal_node_id":"0.0-45.0-3.1"},{"rt":null,"stimulus":"<p>请您告诉我你现在的心情</p>","key_press":null,"trial_type":"html-keyboard-response","trial_index":263,"time_elapsed":743950,"internal_node_id":"0.0-46.0-0.0"},{"rt":2387.6950005069375,"response":"35","stimulus":"<p>请您告诉我你现在的心情</p>","trial_type":"html-slider-response","trial_index":264,"time_elapsed":746340,"internal_node_id":"0.0-46.0-1.0"},{"rt":null,"stimulus":"<p style=\"font-size: 48px\">+</p>","key_press":null,"trial_type":"html-keyboard-response","trial_index":265,"time_elapsed":752642,"internal_node_id":"0.0-46.0-2.0"},{"rt":1181.9100007414818,"stimulus":"","button_pressed":"1","reward_s01":30,"reward_s02":50.4,"feedback01":50.4,"feedback02":0,"listcross":3,"trial_type":"html-button-response","trial_index":266,"time_elapsed":753839,"internal_node_id":"0.0-47.0-0.0"},{"rt":null,"stimulus":"<p style='position: absolute; top: 38%;left: 25%'><img src='img/s2.bmp' width='200px'/></p><p style='position: absolute; top: 42%;left: 28%;color: whilt;font-size: 45pt;'>￥30</p><p style='font-size: 48px'>+</p>","key_press":null,"trial_type":"html-keyboard-response","trial_index":267,"time_elapsed":758343,"internal_node_id":"0.0-47.0-1.0"},{"rt":null,"stimulus":"<p style='position: absolute; top: 38%;left: 25%'><img src='img/s2.bmp' width='200px'/></p><p style='position: absolute; top: 42%;left: 28%;color: whilt;font-size: 45pt;'>￥30</p><p style='font-size: 48px'>+</p>","key_press":null,"trial_type":"html-keyboard-response","trial_index":268,"time_elapsed":759355,"internal_node_id":"0.0-47.0-2.0"},{"rt":null,"stimulus":"<p style='font-size: 48px'>+</p>","key_press":null,"trial_type":"html-keyboard-response","trial_index":269,"time_elapsed":763558,"internal_node_id":"0.0-47.0-3.0"},{"rt":1431.2449991703033,"stimulus":"","button_pressed":"1","reward_s01":-20,"reward_s02":0,"feedback01":0,"feedback02":-63.2,"listcross":6,"trial_type":"html-button-response","trial_index":270,"time_elapsed":765005,"internal_node_id":"0.0-47.0-0.1"},{"rt":null,"stimulus":"<p style='position: absolute; top: 38%;left: 25%'><img src='img/s2.bmp' width='200px'/></p><p style='position: absolute; top: 42%;left: 28%;color: whilt;font-size: 45pt;'>￥-20</p><p style='font-size: 48px'>+</p>","key_press":null,"trial_type":"html-keyboard-response","trial_index":271,"time_elapsed":769509,"internal_node_id":"0.0-47.0-1.1"},{"rt":null,"stimulus":"<p style='position: absolute; top: 38%;left: 25%'><img src='img/s2.bmp' width='200px'/></p><p style='position: absolute; top: 42%;left: 28%;color: whilt;font-size: 45pt;'>￥-20</p><p style='font-size: 48px'>+</p>","key_press":null,"trial_type":"html-keyboard-response","trial_index":272,"time_elapsed":770516,"internal_node_id":"0.0-47.0-2.1"},{"rt":null,"stimulus":"<p style='font-size: 48px'>+</p>","key_press":null,"trial_type":"html-keyboard-response","trial_index":273,"time_elapsed":776818,"internal_node_id":"0.0-47.0-3.1"},{"rt":1508.4600001573563,"stimulus":"","button_pressed":"1","reward_s01":30,"reward_s02":74.4,"feedback01":74.4,"feedback02":0,"listcross":5,"trial_type":"html-button-response","trial_index":274,"time_elapsed":778342,"internal_node_id":"0.0-47.0-0.2"},{"rt":null,"stimulus":"<p style='position: absolute; top: 38%;left: 25%'><img src='img/s2.bmp' width='200px'/></p><p style='position: absolute; top: 42%;left: 28%;color: whilt;font-size: 45pt;'>￥30</p><p style='font-size: 48px'>+</p>","key_press":null,"trial_type":"html-keyboard-response","trial_index":275,"time_elapsed":782846,"internal_node_id":"0.0-47.0-1.2"},{"rt":null,"stimulus":"<p style='position: absolute; top: 38%;left: 25%'><img src='img/s2.bmp' width='200px'/></p><p style='position: absolute; top: 42%;left: 28%;color: whilt;font-size: 45pt;'>￥30</p><p style='font-size: 48px'>+</p>","key_press":null,"trial_type":"html-keyboard-response","trial_index":276,"time_elapsed":783854,"internal_node_id":"0.0-47.0-2.2"},{"rt":null,"stimulus":"<p style='font-size: 48px'>+</p>","key_press":null,"trial_type":"html-keyboard-response","trial_index":277,"time_elapsed":788758,"internal_node_id":"0.0-47.0-3.2"},{"rt":null,"stimulus":"<p>请您告诉我你现在的心情</p>","key_press":null,"trial_type":"html-keyboard-response","trial_index":278,"time_elapsed":790759,"internal_node_id":"0.0-48.0-0.0"},{"rt":3108.78000035882,"response":"61","stimulus":"<p>请您告诉我你现在的心情</p>","trial_type":"html-slider-response","trial_index":279,"time_elapsed":793870,"internal_node_id":"0.0-48.0-1.0"},{"rt":null,"stimulus":"<p style=\"font-size: 48px\">+</p>","key_press":null,"trial_type":"html-keyboard-response","trial_index":280,"time_elapsed":795972,"internal_node_id":"0.0-48.0-2.0"},{"rt":30206.009999848902,"stimulus":"<p style='text-align:left'>现在您可以休息一会，喝点水，动动脖子</p><p style='text-align:left'>准备好了就按一下空格</p>","key_press":32,"trial_type":"html-keyboard-response","trial_index":281,"time_elapsed":826180,"internal_node_id":"0.0-49.0-0.0"},{"rt":null,"stimulus":"<p style='text-align:left'>实验将在5秒后开始</p>","key_press":null,"trial_type":"html-keyboard-response","trial_index":282,"time_elapsed":831181,"internal_node_id":"0.0-49.0-1.0"},{"rt":1396.8049995601177,"stimulus":"","button_pressed":"1","reward_s01":20,"reward_s02":72,"feedback01":72,"feedback02":0,"listcross":4,"trial_type":"html-button-response","trial_index":283,"time_elapsed":832582,"internal_node_id":"0.0-50.0-0.0"},{"rt":null,"stimulus":"<p style='position: absolute; top: 38%;left: 25%'><img src='img/s2.bmp' width='200px'/></p><p style='position: absolute; top: 42%;left: 28%;color: whilt;font-size: 45pt;'>￥20</p><p style='font-size: 48px'>+</p>","key_press":null,"trial_type":"html-keyboard-response","trial_index":284,"time_elapsed":837087,"internal_node_id":"0.0-50.0-1.0"},{"rt":null,"stimulus":"<p style='position: absolute; top: 38%;left: 25%'><img src='img/s2.bmp' width='200px'/></p><p style='position: absolute; top: 42%;left: 28%;color: whilt;font-size: 45pt;'>￥20</p><p style='font-size: 48px'>+</p>","key_press":null,"trial_type":"html-keyboard-response","trial_index":285,"time_elapsed":838095,"internal_node_id":"0.0-50.0-2.0"},{"rt":null,"stimulus":"<p style='font-size: 48px'>+</p>","key_press":null,"trial_type":"html-keyboard-response","trial_index":286,"time_elapsed":840896,"internal_node_id":"0.0-50.0-3.0"},{"rt":2294.909999705851,"stimulus":"","button_pressed":"4","reward_s01":-60,"reward_s02":-100.8,"feedback01":0,"feedback02":-100.8,"listcross":4,"trial_type":"html-button-response","trial_index":287,"time_elapsed":843199,"internal_node_id":"0.0-50.0-0.1"},{"rt":null,"stimulus":"<p style='position: absolute; top: 27%;right: 25%'><img src='img/s2.bmp' width='200px'/></p><p style='position: absolute; top: 31%;right: 27%;color: whilt;font-size: 45pt;'>￥0</p><p style='position: absolute; top: 48%;right: 25%'><img src='img/s2.bmp' width='200px'/></p><p style='position: absolute; top: 53%;right: 27%;color: whilt;font-size: 45pt;'>￥-100.8</p><p style='font-size: 48px'>+</p>","key_press":null,"trial_type":"html-keyboard-response","trial_index":288,"time_elapsed":847704,"internal_node_id":"0.0-50.0-1.1"},{"rt":null,"stimulus":"<p style='position: absolute; top: 48%;right: 25%'><img src='img/s2.bmp' width='200px'/></p><p style='position: absolute; top: 53%;right: 27%;color: whilt;font-size: 45pt;'>￥-100.8</p><p style='font-size: 48px'>+</p>","key_press":null,"trial_type":"html-keyboard-response","trial_index":289,"time_elapsed":848712,"internal_node_id":"0.0-50.0-2.1"},{"rt":null,"stimulus":"<p style='font-size: 48px'>+</p>","key_press":null,"trial_type":"html-keyboard-response","trial_index":290,"time_elapsed":853615,"internal_node_id":"0.0-50.0-3.1"},{"rt":null,"stimulus":"<p>请您告诉我你现在的心情</p>","key_press":null,"trial_type":"html-keyboard-response","trial_index":291,"time_elapsed":855616,"internal_node_id":"0.0-51.0-0.0"},{"rt":2234.179999679327,"response":"39","stimulus":"<p>请您告诉我你现在的心情</p>","trial_type":"html-slider-response","trial_index":292,"time_elapsed":857852,"internal_node_id":"0.0-51.0-1.0"},{"rt":null,"stimulus":"<p style=\"font-size: 48px\">+</p>","key_press":null,"trial_type":"html-keyboard-response","trial_index":293,"time_elapsed":862754,"internal_node_id":"0.0-51.0-2.0"},{"rt":1444.3399999290705,"stimulus":"","button_pressed":"1","reward_s01":30,"reward_s02":0,"feedback01":54.6,"feedback02":0,"listcross":7,"trial_type":"html-button-response","trial_index":294,"time_elapsed":864214,"internal_node_id":"0.0-52.0-0.0"},{"rt":null,"stimulus":"<p style='position: absolute; top: 38%;left: 25%'><img src='img/s2.bmp' width='200px'/></p><p style='position: absolute; top: 42%;left: 28%;color: whilt;font-size: 45pt;'>￥30</p><p style='font-size: 48px'>+</p>","key_press":null,"trial_type":"html-keyboard-response","trial_index":295,"time_elapsed":868718,"internal_node_id":"0.0-52.0-1.0"},{"rt":null,"stimulus":"<p style='position: absolute; top: 38%;left: 25%'><img src='img/s2.bmp' width='200px'/></p><p style='position: absolute; top: 42%;left: 28%;color: whilt;font-size: 45pt;'>￥30</p><p style='font-size: 48px'>+</p>","key_press":null,"trial_type":"html-keyboard-response","trial_index":296,"time_elapsed":869727,"internal_node_id":"0.0-52.0-2.0"},{"rt":null,"stimulus":"<p style='font-size: 48px'>+</p>","key_press":null,"trial_type":"html-keyboard-response","trial_index":297,"time_elapsed":876029,"internal_node_id":"0.0-52.0-3.0"},{"rt":1858.785000629723,"stimulus":"","button_pressed":"4","reward_s01":40,"reward_s02":0,"feedback01":99.2,"feedback02":0,"listcross":4,"trial_type":"html-button-response","trial_index":298,"time_elapsed":877897,"internal_node_id":"0.0-52.0-0.1"},{"rt":null,"stimulus":"<p style='position: absolute; top: 27%;right: 25%'><img src='img/s2.bmp' width='200px'/></p><p style='position: absolute; top: 31%;right: 27%;color: whilt;font-size: 45pt;'>￥99.2</p><p style='position: absolute; top: 48%;right: 25%'><img src='img/s2.bmp' width='200px'/></p><p style='position: absolute; top: 53%;right: 27%;color: whilt;font-size: 45pt;'>￥0</p><p style='font-size: 48px'>+</p>","key_press":null,"trial_type":"html-keyboard-response","trial_index":299,"time_elapsed":882402,"internal_node_id":"0.0-52.0-1.1"},{"rt":null,"stimulus":"<p style='position: absolute; top: 48%;right: 25%'><img src='img/s2.bmp' width='200px'/></p><p style='position: absolute; top: 53%;right: 27%;color: whilt;font-size: 45pt;'>￥0</p><p style='font-size: 48px'>+</p>","key_press":null,"trial_type":"html-keyboard-response","trial_index":300,"time_elapsed":883410,"internal_node_id":"0.0-52.0-2.1"},{"rt":null,"stimulus":"<p style='font-size: 48px'>+</p>","key_press":null,"trial_type":"html-keyboard-response","trial_index":301,"time_elapsed":885513,"internal_node_id":"0.0-52.0-3.1"},{"rt":1777.4100005626678,"stimulus":"","button_pressed":"1","reward_s01":0,"reward_s02":22,"feedback01":22,"feedback02":-22,"listcross":5,"trial_type":"html-button-response","trial_index":302,"time_elapsed":887306,"internal_node_id":"0.0-52.0-0.2"},{"rt":null,"stimulus":"<p style='position: absolute; top: 38%;left: 25%'><img src='img/s2.bmp' width='200px'/></p><p style='position: absolute; top: 42%;left: 28%;color: whilt;font-size: 45pt;'>￥0</p><p style='font-size: 48px'>+</p>","key_press":null,"trial_type":"html-keyboard-response","trial_index":303,"time_elapsed":891810,"internal_node_id":"0.0-52.0-1.2"},{"rt":null,"stimulus":"<p style='position: absolute; top: 38%;left: 25%'><img src='img/s2.bmp' width='200px'/></p><p style='position: absolute; top: 42%;left: 28%;color: whilt;font-size: 45pt;'>￥0</p><p style='font-size: 48px'>+</p>","key_press":null,"trial_type":"html-keyboard-response","trial_index":304,"time_elapsed":892819,"internal_node_id":"0.0-52.0-2.2"},{"rt":null,"stimulus":"<p style='font-size: 48px'>+</p>","key_press":null,"trial_type":"html-keyboard-response","trial_index":305,"time_elapsed":895621,"internal_node_id":"0.0-52.0-3.2"},{"rt":null,"stimulus":"<p>请您告诉我你现在的心情</p>","key_press":null,"trial_type":"html-keyboard-response","trial_index":306,"time_elapsed":897623,"internal_node_id":"0.0-53.0-0.0"},{"rt":2631.4000003039837,"response":"55","stimulus":"<p>请您告诉我你现在的心情</p>","trial_type":"html-slider-response","trial_index":307,"time_elapsed":900257,"internal_node_id":"0.0-53.0-1.0"},{"rt":null,"stimulus":"<p style=\"font-size: 48px\">+</p>","key_press":null,"trial_type":"html-keyboard-response","trial_index":308,"time_elapsed":906559,"internal_node_id":"0.0-53.0-2.0"},{"rt":1306.9949997588992,"stimulus":"","button_pressed":"1","reward_s01":0,"reward_s02":60,"feedback01":60,"feedback02":-60,"listcross":6,"trial_type":"html-button-response","trial_index":309,"time_elapsed":907882,"internal_node_id":"0.0-54.0-0.0"},{"rt":null,"stimulus":"<p style='position: absolute; top: 38%;left: 25%'><img src='img/s2.bmp' width='200px'/></p><p style='position: absolute; top: 42%;left: 28%;color: whilt;font-size: 45pt;'>￥0</p><p style='font-size: 48px'>+</p>","key_press":null,"trial_type":"html-keyboard-response","trial_index":310,"time_elapsed":912386,"internal_node_id":"0.0-54.0-1.0"},{"rt":null,"stimulus":"<p style='position: absolute; top: 38%;left: 25%'><img src='img/s2.bmp' width='200px'/></p><p style='position: absolute; top: 42%;left: 28%;color: whilt;font-size: 45pt;'>￥0</p><p style='font-size: 48px'>+</p>","key_press":null,"trial_type":"html-keyboard-response","trial_index":311,"time_elapsed":913395,"internal_node_id":"0.0-54.0-2.0"},{"rt":null,"stimulus":"<p style='font-size: 48px'>+</p>","key_press":null,"trial_type":"html-keyboard-response","trial_index":312,"time_elapsed":916898,"internal_node_id":"0.0-54.0-3.0"},{"rt":1658.2399997860193,"stimulus":"","button_pressed":"1","reward_s01":-40,"reward_s02":0,"feedback01":0,"feedback02":-200,"listcross":5,"trial_type":"html-button-response","trial_index":313,"time_elapsed":918571,"internal_node_id":"0.0-54.0-0.1"},{"rt":null,"stimulus":"<p style='position: absolute; top: 38%;left: 25%'><img src='img/s2.bmp' width='200px'/></p><p style='position: absolute; top: 42%;left: 28%;color: whilt;font-size: 45pt;'>￥-40</p><p style='font-size: 48px'>+</p>","key_press":null,"trial_type":"html-keyboard-response","trial_index":314,"time_elapsed":923075,"internal_node_id":"0.0-54.0-1.1"},{"rt":null,"stimulus":"<p style='position: absolute; top: 38%;left: 25%'><img src='img/s2.bmp' width='200px'/></p><p style='position: absolute; top: 42%;left: 28%;color: whilt;font-size: 45pt;'>￥-40</p><p style='font-size: 48px'>+</p>","key_press":null,"trial_type":"html-keyboard-response","trial_index":315,"time_elapsed":924083,"internal_node_id":"0.0-54.0-2.1"},{"rt":null,"stimulus":"<p style='font-size: 48px'>+</p>","key_press":null,"trial_type":"html-keyboard-response","trial_index":316,"time_elapsed":927585,"internal_node_id":"0.0-54.0-3.1"},{"rt":1229.3449994176626,"stimulus":"","button_pressed":"1","reward_s01":60,"reward_s02":0,"feedback01":216,"feedback02":0,"listcross":5,"trial_type":"html-button-response","trial_index":317,"time_elapsed":928829,"internal_node_id":"0.0-54.0-0.2"},{"rt":null,"stimulus":"<p style='position: absolute; top: 38%;left: 25%'><img src='img/s2.bmp' width='200px'/></p><p style='position: absolute; top: 42%;left: 28%;color: whilt;font-size: 45pt;'>￥60</p><p style='font-size: 48px'>+</p>","key_press":null,"trial_type":"html-keyboard-response","trial_index":318,"time_elapsed":933334,"internal_node_id":"0.0-54.0-1.2"},{"rt":null,"stimulus":"<p style='position: absolute; top: 38%;left: 25%'><img src='img/s2.bmp' width='200px'/></p><p style='position: absolute; top: 42%;left: 28%;color: whilt;font-size: 45pt;'>￥60</p><p style='font-size: 48px'>+</p>","key_press":null,"trial_type":"html-keyboard-response","trial_index":319,"time_elapsed":934342,"internal_node_id":"0.0-54.0-2.2"},{"rt":null,"stimulus":"<p style='font-size: 48px'>+</p>","key_press":null,"trial_type":"html-keyboard-response","trial_index":320,"time_elapsed":937144,"internal_node_id":"0.0-54.0-3.2"},{"rt":null,"stimulus":"<p>请您告诉我你现在的心情</p>","key_press":null,"trial_type":"html-keyboard-response","trial_index":321,"time_elapsed":939146,"internal_node_id":"0.0-55.0-0.0"},{"rt":2912.800000049174,"response":"58","stimulus":"<p>请您告诉我你现在的心情</p>","trial_type":"html-slider-response","trial_index":322,"time_elapsed":942061,"internal_node_id":"0.0-55.0-1.0"},{"rt":null,"stimulus":"<p style=\"font-size: 48px\">+</p>","key_press":null,"trial_type":"html-keyboard-response","trial_index":323,"time_elapsed":944163,"internal_node_id":"0.0-55.0-2.0"},{"rt":1919.2099999636412,"stimulus":"","button_pressed":"4","reward_s01":0,"reward_s02":220,"feedback01":220,"feedback02":-220,"listcross":6,"trial_type":"html-button-response","trial_index":324,"time_elapsed":946098,"internal_node_id":"0.0-56.0-0.0"},{"rt":null,"stimulus":"<p style='position: absolute; top: 27%;right: 25%'><img src='img/s2.bmp' width='200px'/></p><p style='position: absolute; top: 31%;right: 27%;color: whilt;font-size: 45pt;'>￥220</p><p style='position: absolute; top: 48%;right: 25%'><img src='img/s2.bmp' width='200px'/></p><p style='position: absolute; top: 53%;right: 27%;color: whilt;font-size: 45pt;'>￥-220</p><p style='font-size: 48px'>+</p>","key_press":null,"trial_type":"html-keyboard-response","trial_index":325,"time_elapsed":950604,"internal_node_id":"0.0-56.0-1.0"},{"rt":null,"stimulus":"<p style='position: absolute; top: 27%;right: 25%'><img src='img/s2.bmp' width='200px'/></p><p style='position: absolute; top: 31%;right: 27%;color: whilt;font-size: 45pt;'>￥220</p><p style='font-size: 48px'>+</p>","key_press":null,"trial_type":"html-keyboard-response","trial_index":326,"time_elapsed":951611,"internal_node_id":"0.0-56.0-2.0"},{"rt":null,"stimulus":"<p style='font-size: 48px'>+</p>","key_press":null,"trial_type":"html-keyboard-response","trial_index":327,"time_elapsed":957913,"internal_node_id":"0.0-56.0-3.0"},{"rt":1687.9249997437,"stimulus":"","button_pressed":"1","reward_s01":-20,"reward_s02":0,"feedback01":0,"feedback02":-36.4,"listcross":4,"trial_type":"html-button-response","trial_index":328,"time_elapsed":959617,"internal_node_id":"0.0-56.0-0.1"},{"rt":null,"stimulus":"<p style='position: absolute; top: 38%;left: 25%'><img src='img/s2.bmp' width='200px'/></p><p style='position: absolute; top: 42%;left: 28%;color: whilt;font-size: 45pt;'>￥-20</p><p style='font-size: 48px'>+</p>","key_press":null,"trial_type":"html-keyboard-response","trial_index":329,"time_elapsed":964121,"internal_node_id":"0.0-56.0-1.1"},{"rt":null,"stimulus":"<p style='position: absolute; top: 38%;left: 25%'><img src='img/s2.bmp' width='200px'/></p><p style='position: absolute; top: 42%;left: 28%;color: whilt;font-size: 45pt;'>￥-20</p><p style='font-size: 48px'>+</p>","key_press":null,"trial_type":"html-keyboard-response","trial_index":330,"time_elapsed":965129,"internal_node_id":"0.0-56.0-2.1"},{"rt":null,"stimulus":"<p style='font-size: 48px'>+</p>","key_press":null,"trial_type":"html-keyboard-response","trial_index":331,"time_elapsed":967231,"internal_node_id":"0.0-56.0-3.1"},{"rt":null,"stimulus":"<p>请您告诉我你现在的心情</p>","key_press":null,"trial_type":"html-keyboard-response","trial_index":332,"time_elapsed":969232,"internal_node_id":"0.0-57.0-0.0"},{"rt":3132.3699997738004,"response":"61","stimulus":"<p>请您告诉我你现在的心情</p>","trial_type":"html-slider-response","trial_index":333,"time_elapsed":972365,"internal_node_id":"0.0-57.0-1.0"},{"rt":null,"stimulus":"<p style=\"font-size: 48px\">+</p>","key_press":null,"trial_type":"html-keyboard-response","trial_index":334,"time_elapsed":976567,"internal_node_id":"0.0-57.0-2.0"},{"rt":1470.9399994462729,"stimulus":"","button_pressed":"1","reward_s01":0,"reward_s02":75,"feedback01":75,"feedback02":-75,"listcross":5,"trial_type":"html-button-response","trial_index":335,"time_elapsed":978053,"internal_node_id":"0.0-58.0-0.0"},{"rt":null,"stimulus":"<p style='position: absolute; top: 38%;left: 25%'><img src='img/s2.bmp' width='200px'/></p><p style='position: absolute; top: 42%;left: 28%;color: whilt;font-size: 45pt;'>￥0</p><p style='font-size: 48px'>+</p>","key_press":null,"trial_type":"html-keyboard-response","trial_index":336,"time_elapsed":982556,"internal_node_id":"0.0-58.0-1.0"},{"rt":null,"stimulus":"<p style='position: absolute; top: 38%;left: 25%'><img src='img/s2.bmp' width='200px'/></p><p style='position: absolute; top: 42%;left: 28%;color: whilt;font-size: 45pt;'>￥0</p><p style='font-size: 48px'>+</p>","key_press":null,"trial_type":"html-keyboard-response","trial_index":337,"time_elapsed":983565,"internal_node_id":"0.0-58.0-2.0"},{"rt":null,"stimulus":"<p style='font-size: 48px'>+</p>","key_press":null,"trial_type":"html-keyboard-response","trial_index":338,"time_elapsed":987767,"internal_node_id":"0.0-58.0-3.0"},{"rt":1601.885000243783,"stimulus":"","button_pressed":"1","reward_s01":0,"reward_s02":-44,"feedback01":44,"feedback02":-44,"listcross":4,"trial_type":"html-button-response","trial_index":339,"time_elapsed":989384,"internal_node_id":"0.0-58.0-0.1"},{"rt":null,"stimulus":"<p style='position: absolute; top: 38%;left: 25%'><img src='img/s2.bmp' width='200px'/></p><p style='position: absolute; top: 42%;left: 28%;color: whilt;font-size: 45pt;'>￥0</p><p style='font-size: 48px'>+</p>","key_press":null,"trial_type":"html-keyboard-response","trial_index":340,"time_elapsed":993888,"internal_node_id":"0.0-58.0-1.1"},{"rt":null,"stimulus":"<p style='position: absolute; top: 38%;left: 25%'><img src='img/s2.bmp' width='200px'/></p><p style='position: absolute; top: 42%;left: 28%;color: whilt;font-size: 45pt;'>￥0</p><p style='font-size: 48px'>+</p>","key_press":null,"trial_type":"html-keyboard-response","trial_index":341,"time_elapsed":994898,"internal_node_id":"0.0-58.0-2.1"},{"rt":null,"stimulus":"<p style='font-size: 48px'>+</p>","key_press":null,"trial_type":"html-keyboard-response","trial_index":342,"time_elapsed":1002600,"internal_node_id":"0.0-58.0-3.1"},{"rt":null,"stimulus":"<p>请您告诉我你现在的心情</p>","key_press":null,"trial_type":"html-keyboard-response","trial_index":343,"time_elapsed":1004601,"internal_node_id":"0.0-59.0-0.0"},{"rt":2195.1550003141165,"response":"50","stimulus":"<p>请您告诉我你现在的心情</p>","trial_type":"html-slider-response","trial_index":344,"time_elapsed":1006798,"internal_node_id":"0.0-59.0-1.0"},{"rt":null,"stimulus":"<p style=\"font-size: 48px\">+</p>","key_press":null,"trial_type":"html-keyboard-response","trial_index":345,"time_elapsed":1008900,"internal_node_id":"0.0-59.0-2.0"},{"rt":1412.4699998646975,"stimulus":"","button_pressed":"1","reward_s01":50,"reward_s02":0,"feedback01":111,"feedback02":0,"listcross":6,"trial_type":"html-button-response","trial_index":346,"time_elapsed":1010328,"internal_node_id":"0.0-60.0-0.0"},{"rt":null,"stimulus":"<p style='position: absolute; top: 38%;left: 25%'><img src='img/s2.bmp' width='200px'/></p><p style='position: absolute; top: 42%;left: 28%;color: whilt;font-size: 45pt;'>￥50</p><p style='font-size: 48px'>+</p>","key_press":null,"trial_type":"html-keyboard-response","trial_index":347,"time_elapsed":1014831,"internal_node_id":"0.0-60.0-1.0"},{"rt":null,"stimulus":"<p style='position: absolute; top: 38%;left: 25%'><img src='img/s2.bmp' width='200px'/></p><p style='position: absolute; top: 42%;left: 28%;color: whilt;font-size: 45pt;'>￥50</p><p style='font-size: 48px'>+</p>","key_press":null,"trial_type":"html-keyboard-response","trial_index":348,"time_elapsed":1015834,"internal_node_id":"0.0-60.0-2.0"},{"rt":null,"stimulus":"<p style='font-size: 48px'>+</p>","key_press":null,"trial_type":"html-keyboard-response","trial_index":349,"time_elapsed":1018636,"internal_node_id":"0.0-60.0-3.0"},{"rt":1447.9099996387959,"stimulus":"","button_pressed":"1","reward_s01":0,"reward_s02":9,"feedback01":9,"feedback02":-9,"listcross":5,"trial_type":"html-button-response","trial_index":350,"time_elapsed":1020100,"internal_node_id":"0.0-60.0-0.1"},{"rt":null,"stimulus":"<p style='position: absolute; top: 38%;left: 25%'><img src='img/s2.bmp' width='200px'/></p><p style='position: absolute; top: 42%;left: 28%;color: whilt;font-size: 45pt;'>￥0</p><p style='font-size: 48px'>+</p>","key_press":null,"trial_type":"html-keyboard-response","trial_index":351,"time_elapsed":1024604,"internal_node_id":"0.0-60.0-1.1"},{"rt":null,"stimulus":"<p style='position: absolute; top: 38%;left: 25%'><img src='img/s2.bmp' width='200px'/></p><p style='position: absolute; top: 42%;left: 28%;color: whilt;font-size: 45pt;'>￥0</p><p style='font-size: 48px'>+</p>","key_press":null,"trial_type":"html-keyboard-response","trial_index":352,"time_elapsed":1025613,"internal_node_id":"0.0-60.0-2.1"},{"rt":null,"stimulus":"<p style='font-size: 48px'>+</p>","key_press":null,"trial_type":"html-keyboard-response","trial_index":353,"time_elapsed":1029116,"internal_node_id":"0.0-60.0-3.1"},{"rt":1475.9750002995133,"stimulus":"","button_pressed":"4","reward_s01":0,"reward_s02":96,"feedback01":96,"feedback02":-96,"listcross":6,"trial_type":"html-button-response","trial_index":354,"time_elapsed":1030607,"internal_node_id":"0.0-60.0-0.2"},{"rt":null,"stimulus":"<p style='position: absolute; top: 27%;right: 25%'><img src='img/s2.bmp' width='200px'/></p><p style='position: absolute; top: 31%;right: 27%;color: whilt;font-size: 45pt;'>￥96</p><p style='position: absolute; top: 48%;right: 25%'><img src='img/s2.bmp' width='200px'/></p><p style='position: absolute; top: 53%;right: 27%;color: whilt;font-size: 45pt;'>￥-96</p><p style='font-size: 48px'>+</p>","key_pre