"trial_type","trial_index","time_elapsed","internal_node_id","success","rt","stimulus","key_press","response","button_pressed","reward_s01","reward_s02","feedback01","feedback02","listcross"
"pavlovia","0","2","0.0-0.0","","","","","","","","","","",""
"fullscreen","1","2816","0.0-1.0","true","","","","","","","","","",""
"html-keyboard-response","2","10507","0.0-2.0-0.0","","7690.005000000383","<p style='text-align:left'>今日は実験に協力していただきありがとうございます</p><p style='text-align:left'>実験に入る前に、最近一週間の気分を教えてください</p><p style='text-align:left'>次に進むには、スペースキーを押してください</p>","32","","","","","","",""
"html-slider-response","3","13176","0.0-2.0-1.0","","1667.234999998982","<p>今どれくらい楽しいかを教えてください</p>","","0","","","","","",""
"html-keyboard-response","4","15177","0.0-2.0-2.0","","null","<p style=""font-size: 48px"">+</p>","null","","","","","","",""
"html-keyboard-response","5","16085","0.0-3.0","","907.4799999998504","<p style='text-align:left'>私たちは皆、報酬の見方が異なり、リスクを冒すことをいとわない人もいます</p><p style='text-align:left'>できるだけ多くのお金をもらうように頑張ってください</p><p style='text-align:left'>　</p><p style='text-align:left'>次に進むには、スペースキーを押してください</p>","32","","","","","","",""
"html-keyboard-response","6","27853","0.0-4.0","","10767.149999999674","<p style='text-align:left'>左を選択するとの書かれた金額がもらいます</p><p style='text-align:left'> </p><p style='text-align:left'>右を選択すると半分半分の確率で、上か下かどちらの金額がもらいます</p><p style='text-align:left'>※※３秒内に選択しないと、一番悪い結果になります※※</p><p style='text-align:left'>　</p><p style='text-align:left'>ゲームの途中で今の気持ちが聞かれます</p><p style='text-align:left'>※※４秒内に棒をいじって、確定ボタンを押してください※※</p><p style='text-align:left'>本番に入る前に、練習をやってもらいます、準備がてきたらスペースキーを押してください</p>","32","","","","","","",""
"html-button-response","7","29725","0.0-5.0-0.0","","870.8100000003469","","","","4","60","0","216","0","7"
"html-keyboard-response","8","34230","0.0-5.0-1.0","","null","<p style='position: absolute; top: 27%;right: 25%'><img src='img/s2.bmp' width='200px'/></p><p style='position: absolute; top: 31%;right: 27%;color: whilt;font-size: 45pt;'>￥216</p><p style='position: absolute; top: 48%;right: 25%'><img src='img/s2.bmp' width='200px'/></p><p style='position: absolute; top: 53%;right: 27%;color: whilt;font-size: 45pt;'>￥0</p><p style='font-size: 48px'>+</p>","null","","","","","","",""
"html-keyboard-response","9","35240","0.0-5.0-2.0","","null","<p style='position: absolute; top: 48%;right: 25%'><img src='img/s2.bmp' width='200px'/></p><p style='position: absolute; top: 53%;right: 27%;color: whilt;font-size: 45pt;'>￥0</p><p style='font-size: 48px'>+</p>","null","","","","","","",""
"html-keyboard-response","10","37341","0.0-5.0-3.0","","null","<p style='font-size: 48px'>+</p>","null","","","","","","",""
"html-button-response","11","40357","0.0-5.0-0.1","","null","","","","null","50","140","140","0","7"
"html-keyboard-response","12","44859","0.0-5.0-1.1","","null","<p style='position: absolute; top: 48%;right: 25%'><img src='img/s2.bmp' width='200px'/></p><p style='position: absolute; top: 53%;right: 27%;color: whilt;font-size: 45pt;'>￥0</p><p style='font-size: 48px'>+</p>","null","","","","","","",""
"html-keyboard-response","13","45868","0.0-5.0-2.1","","null","<p style='position: absolute; top: 48%;right: 25%'><img src='img/s2.bmp' width='200px'/></p><p style='position: absolute; top: 53%;right: 27%;color: whilt;font-size: 45pt;'>￥0</p><p style='font-size: 48px'>+</p>","null","","","","","","",""
"html-keyboard-response","14","50778","0.0-5.0-3.1","","null","<p style='font-size: 48px'>+</p>","null","","","","","","",""
"html-keyboard-response","15","52781","0.0-6.0-0.0","","null","<p>今どれくらい楽しいかを教えてください</p>","null","","","","","","",""
"html-slider-response","16","54171","0.0-6.0-1.0","","1389.274999999543","<p>今どれくらい楽しいかを教えてください</p>","","0","","","","","",""
"html-keyboard-response","17","58373","0.0-6.0-2.0","","null","<p style=""font-size: 48px"">+</p>","null","","","","","","",""
"html-button-response","18","60526","0.0-7.0-0.0","","2151.209999999992","","","","4","-40","0","0","-72.8","4"
"html-keyboard-response","19","65037","0.0-7.0-1.0","","null","<p style='position: absolute; top: 27%;right: 25%'><img src='img/s2.bmp' width='200px'/></p><p style='position: absolute; top: 31%;right: 27%;color: whilt;font-size: 45pt;'>￥0</p><p style='position: absolute; top: 48%;right: 25%'><img src='img/s2.bmp' width='200px'/></p><p style='position: absolute; top: 53%;right: 27%;color: whilt;font-size: 45pt;'>￥-72.8</p><p style='font-size: 48px'>+</p>","null","","","","","","",""
"html-keyboard-response","20","66046","0.0-7.0-2.0","","null","<p style='position: absolute; top: 27%;right: 25%'><img src='img/s2.bmp' width='200px'/></p><p style='position: absolute; top: 31%;right: 27%;color: whilt;font-size: 45pt;'>￥0</p><p style='font-size: 48px'>+</p>","null","","","","","","",""
"html-keyboard-response","21","68847","0.0-7.0-3.0","","null","<p style='font-size: 48px'>+</p>","null","","","","","","",""
"html-button-response","22","70117","0.0-7.0-0.1","","1267.8550000000541","","","","4","-30","0","0","-50.4","4"
"html-keyboard-response","23","74619","0.0-7.0-1.1","","null","<p style='position: absolute; top: 27%;right: 25%'><img src='img/s2.bmp' width='200px'/></p><p style='position: absolute; top: 31%;right: 27%;color: whilt;font-size: 45pt;'>￥0</p><p style='position: absolute; top: 48%;right: 25%'><img src='img/s2.bmp' width='200px'/></p><p style='position: absolute; top: 53%;right: 27%;color: whilt;font-size: 45pt;'>￥-50.4</p><p style='font-size: 48px'>+</p>","null","","","","","","",""
"html-keyboard-response","24","75633","0.0-7.0-2.1","","null","<p style='position: absolute; top: 27%;right: 25%'><img src='img/s2.bmp' width='200px'/></p><p style='position: absolute; top: 31%;right: 27%;color: whilt;font-size: 45pt;'>￥0</p><p style='font-size: 48px'>+</p>","null","","","","","","",""
"html-keyboard-response","25","80540","0.0-7.0-3.1","","null","<p style='font-size: 48px'>+</p>","null","","","","","","",""
"html-keyboard-response","26","82552","0.0-8.0-0.0","","null","<p>今どれくらい楽しいかを教えてください</p>","null","","","","","","",""
"html-slider-response","27","84082","0.0-8.0-1.0","","1529.9249999989115","<p>今どれくらい楽しいかを教えてください</p>","","100","","","","","",""
"html-keyboard-response","28","89684","0.0-8.0-2.0","","null","<p style=""font-size: 48px"">+</p>","null","","","","","","",""
"html-keyboard-response","29","91044","0.0-9.0","","1359.4250000005559","<p style='text-align:left'>練習が終わりました</p><p style='text-align:left'>これから本番に入ります、準備がてきたらスペースキーを押してください</p>","32","","","","","","",""
"html-button-response","30","93414","0.0-10.0-0.0","","1357.785000000149","","","","4","0","65.6","65.6","-65.6","6"
"html-keyboard-response","31","97924","0.0-10.0-1.0","","null","<p style='position: absolute; top: 27%;right: 25%'><img src='img/s2.bmp' width='200px'/></p><p style='position: absolute; top: 31%;right: 27%;color: whilt;font-size: 45pt;'>￥65.6</p><p style='position: absolute; top: 48%;right: 25%'><img src='img/s2.bmp' width='200px'/></p><p style='position: absolute; top: 53%;right: 27%;color: whilt;font-size: 45pt;'>￥-65.6</p><p style='font-size: 48px'>+</p>","null","","","","","","",""
"html-keyboard-response","32","98939","0.0-10.0-2.0","","null","<p style='position: absolute; top: 27%;right: 25%'><img src='img/s2.bmp' width='200px'/></p><p style='position: absolute; top: 31%;right: 27%;color: whilt;font-size: 45pt;'>￥65.6</p><p style='font-size: 48px'>+</p>","null","","","","","","",""
"html-keyboard-response","33","105944","0.0-10.0-3.0","","null","<p style='font-size: 48px'>+</p>","null","","","","","","",""
"html-button-response","34","107502","0.0-10.0-0.1","","1555.1699999996345","","","","4","0","-16","16","-16","7"
"html-keyboard-response","35","112011","0.0-10.0-1.1","","null","<p style='position: absolute; top: 27%;right: 25%'><img src='img/s2.bmp' width='200px'/></p><p style='position: absolute; top: 31%;right: 27%;color: whilt;font-size: 45pt;'>￥16</p><p style='position: absolute; top: 48%;right: 25%'><img src='img/s2.bmp' width='200px'/></p><p style='position: absolute; top: 53%;right: 27%;color: whilt;font-size: 45pt;'>￥-16</p><p style='font-size: 48px'>+</p>","null","","","","","","",""
"html-keyboard-response","36","113014","0.0-10.0-2.1","","null","<p style='position: absolute; top: 48%;right: 25%'><img src='img/s2.bmp' width='200px'/></p><p style='position: absolute; top: 53%;right: 27%;color: whilt;font-size: 45pt;'>￥-16</p><p style='font-size: 48px'>+</p>","null","","","","","","",""
"html-keyboard-response","37","116519","0.0-10.0-3.1","","null","<p style='font-size: 48px'>+</p>","null","","","","","","",""
"html-keyboard-response","38","118532","0.0-11.0-0.0","","null","<p>今どれくらい楽しいかを教えてください</p>","null","","","","","","",""
"html-slider-response","39","120556","0.0-11.0-1.0","","2023.060000001351","<p>今どれくらい楽しいかを教えてください</p>","","29","","","","","",""
"html-keyboard-response","40","124065","0.0-11.0-2.0","","null","<p style=""font-size: 48px"">+</p>","null","","","","","","",""
"html-button-response","41","125786","0.0-12.0-0.0","","1718.3850000001257","","","","4","0","32","32","-32","5"
"html-keyboard-response","42","130293","0.0-12.0-1.0","","null","<p style='position: absolute; top: 27%;right: 25%'><img src='img/s2.bmp' width='200px'/></p><p style='position: absolute; top: 31%;right: 27%;color: whilt;font-size: 45pt;'>￥32</p><p style='position: absolute; top: 48%;right: 25%'><img src='img/s2.bmp' width='200px'/></p><p style='position: absolute; top: 53%;right: 27%;color: whilt;font-size: 45pt;'>￥-32</p><p style='font-size: 48px'>+</p>","null","","","","","","",""
"html-keyboard-response","43","131294","0.0-12.0-2.0","","null","<p style='position: absolute; top: 27%;right: 25%'><img src='img/s2.bmp' width='200px'/></p><p style='position: absolute; top: 31%;right: 27%;color: whilt;font-size: 45pt;'>￥32</p><p style='font-size: 48px'>+</p>","null","","","","","","",""
"html-keyboard-response","44","134105","0.0-12.0-3.0","","null","<p style='font-size: 48px'>+</p>","null","","","","","","",""
"html-button-response","45","136173","0.0-12.0-0.1","","2065.225000000297","","","","4","0","100","100","-100","6"
"html-keyboard-response","46","140690","0.0-12.0-1.1","","null","<p style='position: absolute; top: 27%;right: 25%'><img src='img/s2.bmp' width='200px'/></p><p style='position: absolute; top: 31%;right: 27%;color: whilt;font-size: 45pt;'>￥100</p><p style='position: absolute; top: 48%;right: 25%'><img src='img/s2.bmp' width='200px'/></p><p style='position: absolute; top: 53%;right: 27%;color: whilt;font-size: 45pt;'>￥-100</p><p style='font-size: 48px'>+</p>","null","","","","","","",""
"html-keyboard-response","47","141698","0.0-12.0-2.1","","null","<p style='position: absolute; top: 27%;right: 25%'><img src='img/s2.bmp' width='200px'/></p><p style='position: absolute; top: 31%;right: 27%;color: whilt;font-size: 45pt;'>￥100</p><p style='font-size: 48px'>+</p>","null","","","","","","",""
"html-keyboard-response","48","145212","0.0-12.0-3.1","","null","<p style='font-size: 48px'>+</p>","null","","","","","","",""
"html-keyboard-response","49","147213","0.0-13.0-0.0","","null","<p>今どれくらい楽しいかを教えてください</p>","null","","","","","","",""
"html-slider-response","50","148648","0.0-13.0-1.0","","1434.409999999858","<p>今どれくらい楽しいかを教えてください</p>","","78","","","","","",""
"html-keyboard-response","51","151461","0.0-13.0-2.0","","null","<p style=""font-size: 48px"">+</p>","null","","","","","","",""
"html-button-response","52","153005","0.0-14.0-0.0","","1542.1749999987078","","","","4","0","225","225","-225","6"
"html-keyboard-response","53","157511","0.0-14.0-1.0","","null","<p style='position: absolute; top: 27%;right: 25%'><img src='img/s2.bmp' width='200px'/></p><p style='position: absolute; top: 31%;right: 27%;color: whilt;font-size: 45pt;'>￥225</p><p style='position: absolute; top: 48%;right: 25%'><img src='img/s2.bmp' width='200px'/></p><p style='position: absolute; top: 53%;right: 27%;color: whilt;font-size: 45pt;'>￥-225</p><p style='font-size: 48px'>+</p>","null","","","","","","",""
"html-keyboard-response","54","158517","0.0-14.0-2.0","","null","<p style='position: absolute; top: 27%;right: 25%'><img src='img/s2.bmp' width='200px'/></p><p style='position: absolute; top: 31%;right: 27%;color: whilt;font-size: 45pt;'>￥225</p><p style='font-size: 48px'>+</p>","null","","","","","","",""
"html-keyboard-response","55","162731","0.0-14.0-3.0","","null","<p style='font-size: 48px'>+</p>","null","","","","","","",""
"html-button-response","56","164866","0.0-14.0-0.1","","2133.035000000731","","","","4","-40","-88","0","-88","3"
"html-keyboard-response","57","169368","0.0-14.0-1.1","","null","<p style='position: absolute; top: 27%;right: 25%'><img src='img/s2.bmp' width='200px'/></p><p style='position: absolute; top: 31%;right: 27%;color: whilt;font-size: 45pt;'>￥0</p><p style='position: absolute; top: 48%;right: 25%'><img src='img/s2.bmp' width='200px'/></p><p style='position: absolute; top: 53%;right: 27%;color: whilt;font-size: 45pt;'>￥-88</p><p style='font-size: 48px'>+</p>","null","","","","","","",""
"html-keyboard-response","58","170369","0.0-14.0-2.1","","null","<p style='position: absolute; top: 48%;right: 25%'><img src='img/s2.bmp' width='200px'/></p><p style='position: absolute; top: 53%;right: 27%;color: whilt;font-size: 45pt;'>￥-88</p><p style='font-size: 48px'>+</p>","null","","","","","","",""
"html-keyboard-response","59","173171","0.0-14.0-3.1","","null","<p style='font-size: 48px'>+</p>","null","","","","","","",""
"html-keyboard-response","60","175172","0.0-15.0-0.0","","null","<p>今どれくらい楽しいかを教えてください</p>","null","","","","","","",""
"html-slider-response","61","176623","0.0-15.0-1.0","","1450.3899999999558","<p>今どれくらい楽しいかを教えてください</p>","","44","","","","","",""
"html-keyboard-response","62","180124","0.0-15.0-2.0","","null","<p style=""font-size: 48px"">+</p>","null","","","","","","",""
"html-button-response","63","182593","0.0-16.0-0.0","","2466.664999999921","","","","4","50","0","124","0","5"
"html-keyboard-response","64","187097","0.0-16.0-1.0","","null","<p style='position: absolute; top: 27%;right: 25%'><img src='img/s2.bmp' width='200px'/></p><p style='position: absolute; top: 31%;right: 27%;color: whilt;font-size: 45pt;'>￥124</p><p style='position: absolute; top: 48%;right: 25%'><img src='img/s2.bmp' width='200px'/></p><p style='position: absolute; top: 53%;right: 27%;color: whilt;font-size: 45pt;'>￥0</p><p style='font-size: 48px'>+</p>","null","","","","","","",""
"html-keyboard-response","65","188098","0.0-16.0-2.0","","null","<p style='position: absolute; top: 48%;right: 25%'><img src='img/s2.bmp' width='200px'/></p><p style='position: absolute; top: 53%;right: 27%;color: whilt;font-size: 45pt;'>￥0</p><p style='font-size: 48px'>+</p>","null","","","","","","",""
"html-keyboard-response","66","192310","0.0-16.0-3.0","","null","<p style='font-size: 48px'>+</p>","null","","","","","","",""
"html-button-response","67","193667","0.0-16.0-0.1","","1354.429999999411","","","","4","0","-78","78","-78","10"
"html-keyboard-response","68","198183","0.0-16.0-1.1","","null","<p style='position: absolute; top: 27%;right: 25%'><img src='img/s2.bmp' width='200px'/></p><p style='position: absolute; top: 31%;right: 27%;color: whilt;font-size: 45pt;'>￥78</p><p style='position: absolute; top: 48%;right: 25%'><img src='img/s2.bmp' width='200px'/></p><p style='position: absolute; top: 53%;right: 27%;color: whilt;font-size: 45pt;'>￥-78</p><p style='font-size: 48px'>+</p>","null","","","","","","",""
"html-keyboard-response","69","199185","0.0-16.0-2.1","","null","<p style='position: absolute; top: 48%;right: 25%'><img src='img/s2.bmp' width='200px'/></p><p style='position: absolute; top: 53%;right: 27%;color: whilt;font-size: 45pt;'>￥-78</p><p style='font-size: 48px'>+</p>","null","","","","","","",""
"html-keyboard-response","70","203397","0.0-16.0-3.1","","null","<p style='font-size: 48px'>+</p>","null","","","","","","",""
"html-keyboard-response","71","205398","0.0-17.0-0.0","","null","<p>今どれくらい楽しいかを教えてください</p>","null","","","","","","",""
"html-slider-response","72","207746","0.0-17.0-1.0","","2347.3850000009406","<p>今どれくらい楽しいかを教えてください</p>","","1","","","","","",""
"html-keyboard-response","73","214747","0.0-17.0-2.0","","null","<p style=""font-size: 48px"">+</p>","null","","","","","","",""
"html-button-response","74","216142","0.0-18.0-0.0","","1392.3700000013923","","","","4","0","41","41","-41","4"
"html-keyboard-response","75","220643","0.0-18.0-1.0","","null","<p style='position: absolute; top: 27%;right: 25%'><img src='img/s2.bmp' width='200px'/></p><p style='position: absolute; top: 31%;right: 27%;color: whilt;font-size: 45pt;'>￥41</p><p style='position: absolute; top: 48%;right: 25%'><img src='img/s2.bmp' width='200px'/></p><p style='position: absolute; top: 53%;right: 27%;color: whilt;font-size: 45pt;'>￥-41</p><p style='font-size: 48px'>+</p>","null","","","","","","",""
"html-keyboard-response","76","221659","0.0-18.0-2.0","","null","<p style='position: absolute; top: 27%;right: 25%'><img src='img/s2.bmp' width='200px'/></p><p style='position: absolute; top: 31%;right: 27%;color: whilt;font-size: 45pt;'>￥41</p><p style='font-size: 48px'>+</p>","null","","","","","","",""
"html-keyboard-response","77","226561","0.0-18.0-3.0","","null","<p style='font-size: 48px'>+</p>","null","","","","","","",""
"html-button-response","78","229564","0.0-18.0-0.1","","null","","","","null","-40","0","0","-112","5"
"html-keyboard-response","79","234066","0.0-18.0-1.1","","null","<p style='position: absolute; top: 48%;right: 25%'><img src='img/s2.bmp' width='200px'/></p><p style='position: absolute; top: 53%;right: 27%;color: whilt;font-size: 45pt;'>￥-112</p><p style='font-size: 48px'>+</p>","null","","","","","","",""
"html-keyboard-response","80","235069","0.0-18.0-2.1","","null","<p style='position: absolute; top: 48%;right: 25%'><img src='img/s2.bmp' width='200px'/></p><p style='position: absolute; top: 53%;right: 27%;color: whilt;font-size: 45pt;'>￥-112</p><p style='font-size: 48px'>+</p>","null","","","","","","",""
"html-keyboard-response","81","237170","0.0-18.0-3.1","","null","<p style='font-size: 48px'>+</p>","null","","","","","","",""
"html-button-response","82","239021","0.0-18.0-0.2","","1848.7150000000838","","","","4","-60","0","0","-133.2","9"
"html-keyboard-response","83","243523","0.0-18.0-1.2","","null","<p style='position: absolute; top: 27%;right: 25%'><img src='img/s2.bmp' width='200px'/></p><p style='position: absolute; top: 31%;right: 27%;color: whilt;font-size: 45pt;'>￥0</p><p style='position: absolute; top: 48%;right: 25%'><img src='img/s2.bmp' width='200px'/></p><p style='position: absolute; top: 53%;right: 27%;color: whilt;font-size: 45pt;'>￥-133.2</p><p style='font-size: 48px'>+</p>","null","","","","","","",""
"html-keyboard-response","84","244531","0.0-18.0-2.2","","null","<p style='position: absolute; top: 27%;right: 25%'><img src='img/s2.bmp' width='200px'/></p><p style='position: absolute; top: 31%;right: 27%;color: whilt;font-size: 45pt;'>￥0</p><p style='font-size: 48px'>+</p>","null","","","","","","",""
"html-keyboard-response","85","250132","0.0-18.0-3.2","","null","<p style='font-size: 48px'>+</p>","null","","","","","","",""
"html-keyboard-response","86","252134","0.0-19.0-0.0","","null","<p>今どれくらい楽しいかを教えてください</p>","null","","","","","","",""
"html-slider-response","87","253565","0.0-19.0-1.0","","1430.065000000468","<p>今どれくらい楽しいかを教えてください</p>","","0","","","","","",""
"html-keyboard-response","88","257775","0.0-19.0-2.0","","null","<p style=""font-size: 48px"">+</p>","null","","","","","","",""
"html-button-response","89","258895","0.0-20.0-0.0","","1117.405000000872","","","","4","0","33","33","-33","4"
"html-keyboard-response","90","263401","0.0-20.0-1.0","","null","<p style='position: absolute; top: 27%;right: 25%'><img src='img/s2.bmp' width='200px'/></p><p style='position: absolute; top: 31%;right: 27%;color: whilt;font-size: 45pt;'>￥33</p><p style='position: absolute; top: 48%;right: 25%'><img src='img/s2.bmp' width='200px'/></p><p style='position: absolute; top: 53%;right: 27%;color: whilt;font-size: 45pt;'>￥-33</p><p style='font-size: 48px'>+</p>","null","","","","","","",""
"html-keyboard-response","91","264414","0.0-20.0-2.0","","null","<p style='position: absolute; top: 27%;right: 25%'><img src='img/s2.bmp' width='200px'/></p><p style='position: absolute; top: 31%;right: 27%;color: whilt;font-size: 45pt;'>￥33</p><p style='font-size: 48px'>+</p>","null","","","","","","",""
"html-keyboard-response","92","267917","0.0-20.0-3.0","","null","<p style='font-size: 48px'>+</p>","null","","","","","","",""
"html-button-response","93","269305","0.0-20.0-0.1","","1386.1750000014435","","","","4","40","0","200","0","3"
"html-keyboard-response","94","273812","0.0-20.0-1.1","","null","<p style='position: absolute; top: 27%;right: 25%'><img src='img/s2.bmp' width='200px'/></p><p style='position: absolute; top: 31%;right: 27%;color: whilt;font-size: 45pt;'>￥200</p><p style='position: absolute; top: 48%;right: 25%'><img src='img/s2.bmp' width='200px'/></p><p style='position: absolute; top: 53%;right: 27%;color: whilt;font-size: 45pt;'>￥0</p><p style='font-size: 48px'>+</p>","null","","","","","","",""
"html-keyboard-response","95","274814","0.0-20.0-2.1","","null","<p style='position: absolute; top: 48%;right: 25%'><img src='img/s2.bmp' width='200px'/></p><p style='position: absolute; top: 53%;right: 27%;color: whilt;font-size: 45pt;'>￥0</p><p style='font-size: 48px'>+</p>","null","","","","","","",""
"html-keyboard-response","96","279731","0.0-20.0-3.1","","null","<p style='font-size: 48px'>+</p>","null","","","","","","",""
"html-keyboard-response","97","281736","0.0-21.0-0.0","","null","<p>今どれくらい楽しいかを教えてください</p>","null","","","","","","",""
"html-slider-response","98","284585","0.0-21.0-1.0","","2848.8350000006612","<p>今どれくらい楽しいかを教えてください</p>","","0","","","","","",""
"html-keyboard-response","99","288100","0.0-21.0-2.0","","null","<p style=""font-size: 48px"">+</p>","null","","","","","","",""
"html-button-response","100","289649","0.0-22.0-0.0","","1547.2500000014552","","","","1","-30","-84","0","-84","4"
"html-keyboard-response","101","294153","0.0-22.0-1.0","","null","<p style='position: absolute; top: 38%;left: 25%'><img src='img/s2.bmp' width='200px'/></p><p style='position: absolute; top: 42%;left: 28%;color: whilt;font-size: 45pt;'>￥-30</p><p style='font-size: 48px'>+</p>","null","","","","","","",""
"html-keyboard-response","102","295165","0.0-22.0-2.0","","null","<p style='position: absolute; top: 38%;left: 25%'><img src='img/s2.bmp' width='200px'/></p><p style='position: absolute; top: 42%;left: 28%;color: whilt;font-size: 45pt;'>￥-30</p><p style='font-size: 48px'>+</p>","null","","","","","","",""
"html-keyboard-response","103","298673","0.0-22.0-3.0","","null","<p style='font-size: 48px'>+</p>","null","","","","","","",""
"html-button-response","104","299997","0.0-22.0-0.1","","1321.4850000003353","","","","4","50","84","84","0","5"
"html-keyboard-response","105","304512","0.0-22.0-1.1","","null","<p style='position: absolute; top: 27%;right: 25%'><img src='img/s2.bmp' width='200px'/></p><p style='position: absolute; top: 31%;right: 27%;color: whilt;font-size: 45pt;'>￥84</p><p style='position: absolute; top: 48%;right: 25%'><img src='img/s2.bmp' width='200px'/></p><p style='position: absolute; top: 53%;right: 27%;color: whilt;font-size: 45pt;'>￥0</p><p style='font-size: 48px'>+</p>","null","","","","","","",""
"html-keyboard-response","106","305519","0.0-22.0-2.1","","null","<p style='position: absolute; top: 27%;right: 25%'><img src='img/s2.bmp' width='200px'/></p><p style='position: absolute; top: 31%;right: 27%;color: whilt;font-size: 45pt;'>￥84</p><p style='font-size: 48px'>+</p>","null","","","","","","",""
"html-keyboard-response","107","310426","0.0-22.0-3.1","","null","<p style='font-size: 48px'>+</p>","null","","","","","","",""
"html-button-response","108","311594","0.0-22.0-0.2","","1166.2299999988754","","","","4","50","0","180","0","7"
"html-keyboard-response","109","316096","0.0-22.0-1.2","","null","<p style='position: absolute; top: 27%;right: 25%'><img src='img/s2.bmp' width='200px'/></p><p style='position: absolute; top: 31%;right: 27%;color: whilt;font-size: 45pt;'>￥180</p><p style='position: absolute; top: 48%;right: 25%'><img src='img/s2.bmp' width='200px'/></p><p style='position: absolute; top: 53%;right: 27%;color: whilt;font-size: 45pt;'>￥0</p><p style='font-size: 48px'>+</p>","null","","","","","","",""
"html-keyboard-response","110","317110","0.0-22.0-2.2","","null","<p style='position: absolute; top: 48%;right: 25%'><img src='img/s2.bmp' width='200px'/></p><p style='position: absolute; top: 53%;right: 27%;color: whilt;font-size: 45pt;'>￥0</p><p style='font-size: 48px'>+</p>","null","","","","","","",""
"html-keyboard-response","111","321315","0.0-22.0-3.2","","null","<p style='font-size: 48px'>+</p>","null","","","","","","",""
"html-keyboard-response","112","323317","0.0-23.0-0.0","","null","<p>今どれくらい楽しいかを教えてください</p>","null","","","","","","",""
"html-slider-response","113","324934","0.0-23.0-1.0","","1617.4250000003376","<p>今どれくらい楽しいかを教えてください</p>","","20","","","","","",""
"html-keyboard-response","114","331236","0.0-23.0-2.0","","null","<p style=""font-size: 48px"">+</p>","null","","","","","","",""
"html-button-response","115","332362","0.0-24.0-0.0","","1125.9549999995506","","","","4","0","72.6","72.6","-72.6","7"
"html-keyboard-response","116","336878","0.0-24.0-1.0","","null","<p style='position: absolute; top: 27%;right: 25%'><img src='img/s2.bmp' width='200px'/></p><p style='position: absolute; top: 31%;right: 27%;color: whilt;font-size: 45pt;'>￥72.6</p><p style='position: absolute; top: 48%;right: 25%'><img src='img/s2.bmp' width='200px'/></p><p style='position: absolute; top: 53%;right: 27%;color: whilt;font-size: 45pt;'>￥-72.6</p><p style='font-size: 48px'>+</p>","null","","","","","","",""
"html-keyboard-response","117","337882","0.0-24.0-2.0","","null","<p style='position: absolute; top: 27%;right: 25%'><img src='img/s2.bmp' width='200px'/></p><p style='position: absolute; top: 31%;right: 27%;color: whilt;font-size: 45pt;'>￥72.6</p><p style='font-size: 48px'>+</p>","null","","","","","","",""
"html-keyboard-response","118","341383","0.0-24.0-3.0","","null","<p style='font-size: 48px'>+</p>","null","","","","","","",""
"html-button-response","119","343329","0.0-24.0-0.1","","1943.9800000000396","","","","4","0","19.8","19.8","-19.8","7"
"html-keyboard-response","120","347846","0.0-24.0-1.1","","null","<p style='position: absolute; top: 27%;right: 25%'><img src='img/s2.bmp' width='200px'/></p><p style='position: absolute; top: 31%;right: 27%;color: whilt;font-size: 45pt;'>￥19.8</p><p style='position: absolute; top: 48%;right: 25%'><img src='img/s2.bmp' width='200px'/></p><p style='position: absolute; top: 53%;right: 27%;color: whilt;font-size: 45pt;'>￥-19.8</p><p style='font-size: 48px'>+</p>","null","","","","","","",""
"html-keyboard-response","121","348852","0.0-24.0-2.1","","null","<p style='position: absolute; top: 27%;right: 25%'><img src='img/s2.bmp' width='200px'/></p><p style='position: absolute; top: 31%;right: 27%;color: whilt;font-size: 45pt;'>￥19.8</p><p style='font-size: 48px'>+</p>","null","","","","","","",""
"html-keyboard-response","122","355853","0.0-24.0-3.1","","null","<p style='font-size: 48px'>+</p>","null","","","","","","",""
"html-button-response","123","356993","0.0-24.0-0.2","","1137.4149999992223","","","","4","50","0","91","0","5"
"html-keyboard-response","124","361503","0.0-24.0-1.2","","null","<p style='position: absolute; top: 27%;right: 25%'><img src='img/s2.bmp' width='200px'/></p><p style='position: absolute; top: 31%;right: 27%;color: whilt;font-size: 45pt;'>￥91</p><p style='position: absolute; top: 48%;right: 25%'><img src='img/s2.bmp' width='200px'/></p><p style='position: absolute; top: 53%;right: 27%;color: whilt;font-size: 45pt;'>￥0</p><p style='font-size: 48px'>+</p>","null","","","","","","",""
"html-keyboard-response","125","362504","0.0-24.0-2.2","","null","<p style='position: absolute; top: 48%;right: 25%'><img src='img/s2.bmp' width='200px'/></p><p style='position: absolute; top: 53%;right: 27%;color: whilt;font-size: 45pt;'>￥0</p><p style='font-size: 48px'>+</p>","null","","","","","","",""
"html-keyboard-response","126","367415","0.0-24.0-3.2","","null","<p style='font-size: 48px'>+</p>","null","","","","","","",""
"html-keyboard-response","127","369417","0.0-25.0-0.0","","null","<p>今どれくらい楽しいかを教えてください</p>","null","","","","","","",""
"html-slider-response","128","370666","0.0-25.0-1.0","","1249.0400000005611","<p>今どれくらい楽しいかを教えてください</p>","","68","","","","","",""
"html-keyboard-response","129","372779","0.0-25.0-2.0","","null","<p style=""font-size: 48px"">+</p>","null","","","","","","",""
"html-button-response","130","374245","0.0-26.0-0.0","","1464.3149999993038","","","","4","60","133.2","133.2","0","4"
"html-keyboard-response","131","378748","0.0-26.0-1.0","","null","<p style='position: absolute; top: 27%;right: 25%'><img src='img/s2.bmp' width='200px'/></p><p style='position: absolute; top: 31%;right: 27%;color: whilt;font-size: 45pt;'>￥133.2</p><p style='position: absolute; top: 48%;right: 25%'><img src='img/s2.bmp' width='200px'/></p><p style='position: absolute; top: 53%;right: 27%;color: whilt;font-size: 45pt;'>￥0</p><p style='font-size: 48px'>+</p>","null","","","","","","",""
"html-keyboard-response","132","379752","0.0-26.0-2.0","","null","<p style='position: absolute; top: 27%;right: 25%'><img src='img/s2.bmp' width='200px'/></p><p style='position: absolute; top: 31%;right: 27%;color: whilt;font-size: 45pt;'>￥133.2</p><p style='font-size: 48px'>+</p>","null","","","","","","",""
"html-keyboard-response","133","385365","0.0-26.0-3.0","","null","<p style='font-size: 48px'>+</p>","null","","","","","","",""
"html-button-response","134","386909","0.0-26.0-0.1","","1541.5050000010524","","","","4","30","0","74.4","0","4"
"html-keyboard-response","135","391420","0.0-26.0-1.1","","null","<p style='position: absolute; top: 27%;right: 25%'><img src='img/s2.bmp' width='200px'/></p><p style='position: absolute; top: 31%;right: 27%;color: whilt;font-size: 45pt;'>￥74.4</p><p style='position: absolute; top: 48%;right: 25%'><img src='img/s2.bmp' width='200px'/></p><p style='position: absolute; top: 53%;right: 27%;color: whilt;font-size: 45pt;'>￥0</p><p style='font-size: 48px'>+</p>","null","","","","","","",""
"html-keyboard-response","136","392435","0.0-26.0-2.1","","null","<p style='position: absolute; top: 48%;right: 25%'><img src='img/s2.bmp' width='200px'/></p><p style='position: absolute; top: 53%;right: 27%;color: whilt;font-size: 45pt;'>￥0</p><p style='font-size: 48px'>+</p>","null","","","","","","",""
"html-keyboard-response","137","394536","0.0-26.0-3.1","","null","<p style='font-size: 48px'>+</p>","null","","","","","","",""
"html-keyboard-response","138","396546","0.0-27.0-0.0","","null","<p>今どれくらい楽しいかを教えてください</p>","null","","","","","","",""
"html-slider-response","139","399502","0.0-27.0-1.0","","2955.779999998398","<p>今どれくらい楽しいかを教えてください</p>","","63","","","","","",""
"html-keyboard-response","140","402312","0.0-27.0-2.0","","null","<p style=""font-size: 48px"">+</p>","null","","","","","","",""
"html-button-response","141","403772","0.0-28.0-0.0","","1458.384999999893","","","","4","20","0","100","0","9"
"html-keyboard-response","142","408288","0.0-28.0-1.0","","null","<p style='position: absolute; top: 27%;right: 25%'><img src='img/s2.bmp' width='200px'/></p><p style='position: absolute; top: 31%;right: 27%;color: whilt;font-size: 45pt;'>￥100</p><p style='position: absolute; top: 48%;right: 25%'><img src='img/s2.bmp' width='200px'/></p><p style='position: absolute; top: 53%;right: 27%;color: whilt;font-size: 45pt;'>￥0</p><p style='font-size: 48px'>+</p>","null","","","","","","",""
"html-keyboard-response","143","409292","0.0-28.0-2.0","","null","<p style='position: absolute; top: 48%;right: 25%'><img src='img/s2.bmp' width='200px'/></p><p style='position: absolute; top: 53%;right: 27%;color: whilt;font-size: 45pt;'>￥0</p><p style='font-size: 48px'>+</p>","null","","","","","","",""
"html-keyboard-response","144","414193","0.0-28.0-3.0","","null","<p style='font-size: 48px'>+</p>","null","","","","","","",""
"html-button-response","145","415400","0.0-28.0-0.1","","1204.9349999997648","","","","4","0","-20","20","-20","5"
"html-keyboard-response","146","419914","0.0-28.0-1.1","","null","<p style='position: absolute; top: 27%;right: 25%'><img src='img/s2.bmp' width='200px'/></p><p style='position: absolute; top: 31%;right: 27%;color: whilt;font-size: 45pt;'>￥20</p><p style='position: absolute; top: 48%;right: 25%'><img src='img/s2.bmp' width='200px'/></p><p style='position: absolute; top: 53%;right: 27%;color: whilt;font-size: 45pt;'>￥-20</p><p style='font-size: 48px'>+</p>","null","","","","","","",""
"html-keyboard-response","147","420917","0.0-28.0-2.1","","null","<p style='position: absolute; top: 48%;right: 25%'><img src='img/s2.bmp' width='200px'/></p><p style='position: absolute; top: 53%;right: 27%;color: whilt;font-size: 45pt;'>￥-20</p><p style='font-size: 48px'>+</p>","null","","","","","","",""
"html-keyboard-response","148","425821","0.0-28.0-3.1","","null","<p style='font-size: 48px'>+</p>","null","","","","","","",""
"html-keyboard-response","149","427823","0.0-29.0-0.0","","null","<p>今どれくらい楽しいかを教えてください</p>","null","","","","","","",""
"html-slider-response","150","429164","0.0-29.0-1.0","","1340.304999999702","<p>今どれくらい楽しいかを教えてください</p>","","0","","","","","",""
"html-keyboard-response","151","433365","0.0-29.0-2.0","","null","<p style=""font-size: 48px"">+</p>","null","","","","","","",""
"html-button-response","152","434309","0.0-30.0-0.0","","942.8949999983306","","","","4","0","33","33","-33","10"
"html-keyboard-response","153","438814","0.0-30.0-1.0","","null","<p style='position: absolute; top: 27%;right: 25%'><img src='img/s2.bmp' width='200px'/></p><p style='position: absolute; top: 31%;right: 27%;color: whilt;font-size: 45pt;'>￥33</p><p style='position: absolute; top: 48%;right: 25%'><img src='img/s2.bmp' width='200px'/></p><p style='position: absolute; top: 53%;right: 27%;color: whilt;font-size: 45pt;'>￥-33</p><p style='font-size: 48px'>+</p>","null","","","","","","",""
"html-keyboard-response","154","439825","0.0-30.0-2.0","","null","<p style='position: absolute; top: 27%;right: 25%'><img src='img/s2.bmp' width='200px'/></p><p style='position: absolute; top: 31%;right: 27%;color: whilt;font-size: 45pt;'>￥33</p><p style='font-size: 48px'>+</p>","null","","","","","","",""
"html-keyboard-response","155","443326","0.0-30.0-3.0","","null","<p style='font-size: 48px'>+</p>","null","","","","","","",""
"html-button-response","156","445899","0.0-30.0-0.1","","2570.3249999987893","","","","4","-40","0","0","-67.2","6"
"html-keyboard-response","157","450408","0.0-30.0-1.1","","null","<p style='position: absolute; top: 27%;right: 25%'><img src='img/s2.bmp' width='200px'/></p><p style='position: absolute; top: 31%;right: 27%;color: whilt;font-size: 45pt;'>￥0</p><p style='position: absolute; top: 48%;right: 25%'><img src='img/s2.bmp' width='200px'/></p><p style='position: absolute; top: 53%;right: 27%;color: whilt;font-size: 45pt;'>￥-67.2</p><p style='font-size: 48px'>+</p>","null","","","","","","",""
"html-keyboard-response","158","451410","0.0-30.0-2.1","","null","<p style='position: absolute; top: 27%;right: 25%'><img src='img/s2.bmp' width='200px'/></p><p style='position: absolute; top: 31%;right: 27%;color: whilt;font-size: 45pt;'>￥0</p><p style='font-size: 48px'>+</p>","null","","","","","","",""
"html-keyboard-response","159","454216","0.0-30.0-3.1","","null","<p style='font-size: 48px'>+</p>","null","","","","","","",""
"html-keyboard-response","160","456218","0.0-31.0-0.0","","null","<p>今どれくらい楽しいかを教えてください</p>","null","","","","","","",""
"html-slider-response","161","458774","0.0-31.0-1.0","","2555.2899999984074","<p>今どれくらい楽しいかを教えてください</p>","","30","","","","","",""
"html-keyboard-response","162","464384","0.0-31.0-2.0","","null","<p style=""font-size: 48px"">+</p>","null","","","","","","",""
"html-button-response","163","466273","0.0-32.0-0.0","","1887.2650000011781","","","","4","30","108","108","0","5"
"html-keyboard-response","164","470788","0.0-32.0-1.0","","null","<p style='position: absolute; top: 27%;right: 25%'><img src='img/s2.bmp' width='200px'/></p><p style='position: absolute; top: 31%;right: 27%;color: whilt;font-size: 45pt;'>￥108</p><p style='position: absolute; top: 48%;right: 25%'><img src='img/s2.bmp' width='200px'/></p><p style='position: absolute; top: 53%;right: 27%;color: whilt;font-size: 45pt;'>￥0</p><p style='font-size: 48px'>+</p>","null","","","","","","",""
"html-keyboard-response","165","471792","0.0-32.0-2.0","","null","<p style='position: absolute; top: 27%;right: 25%'><img src='img/s2.bmp' width='200px'/></p><p style='position: absolute; top: 31%;right: 27%;color: whilt;font-size: 45pt;'>￥108</p><p style='font-size: 48px'>+</p>","null","","","","","","",""
"html-keyboard-response","166","475296","0.0-32.0-3.0","","null","<p style='font-size: 48px'>+</p>","null","","","","","","",""
"html-button-response","167","477140","0.0-32.0-0.1","","1841.7550000012852","","","","1","-30","0","0","-66.6","4"
"html-keyboard-response","168","481642","0.0-32.0-1.1","","null","<p style='position: absolute; top: 38%;left: 25%'><img src='img/s2.bmp' width='200px'/></p><p style='position: absolute; top: 42%;left: 28%;color: whilt;font-size: 45pt;'>￥-30</p><p style='font-size: 48px'>+</p>","null","","","","","","",""
"html-keyboard-response","169","482643","0.0-32.0-2.1","","null","<p style='position: absolute; top: 38%;left: 25%'><img src='img/s2.bmp' width='200px'/></p><p style='position: absolute; top: 42%;left: 28%;color: whilt;font-size: 45pt;'>￥-30</p><p style='font-size: 48px'>+</p>","null","","","","","","",""
"html-keyboard-response","170","484759","0.0-32.0-3.1","","null","<p style='font-size: 48px'>+</p>","null","","","","","","",""
"html-keyboard-response","171","486761","0.0-33.0-0.0","","null","<p>今どれくらい楽しいかを教えてください</p>","null","","","","","","",""
"html-slider-response","172","489595","0.0-33.0-1.0","","2834.3699999986566","<p>今どれくらい楽しいかを教えてください</p>","","77","","","","","",""
"html-keyboard-response","173","495203","0.0-33.0-2.0","","null","<p style=""font-size: 48px"">+</p>","null","","","","","","",""
"html-button-response","174","497801","0.0-34.0-0.0","","2596.315000000701","","","","1","-30","-108","0","-108","9"
"html-keyboard-response","175","502304","0.0-34.0-1.0","","null","<p style='position: absolute; top: 38%;left: 25%'><img src='img/s2.bmp' width='200px'/></p><p style='position: absolute; top: 42%;left: 28%;color: whilt;font-size: 45pt;'>￥-30</p><p style='font-size: 48px'>+</p>","null","","","","","","",""
"html-keyboard-response","176","503307","0.0-34.0-2.0","","null","<p style='position: absolute; top: 38%;left: 25%'><img src='img/s2.bmp' width='200px'/></p><p style='position: absolute; top: 42%;left: 28%;color: whilt;font-size: 45pt;'>￥-30</p><p style='font-size: 48px'>+</p>","null","","","","","","",""
"html-keyboard-response","177","511011","0.0-34.0-3.0","","null","<p style='font-size: 48px'>+</p>","null","","","","","","",""
"html-button-response","178","513401","0.0-34.0-0.1","","2388.184999999765","","","","1","-60","0","0","-252","4"
"html-keyboard-response","179","517912","0.0-34.0-1.1","","null","<p style='position: absolute; top: 38%;left: 25%'><img src='img/s2.bmp' width='200px'/></p><p style='position: absolute; top: 42%;left: 28%;color: whilt;font-size: 45pt;'>￥-60</p><p style='font-size: 48px'>+</p>","null","","","","","","",""
"html-keyboard-response","180","518913","0.0-34.0-2.1","","null","<p style='position: absolute; top: 38%;left: 25%'><img src='img/s2.bmp' width='200px'/></p><p style='position: absolute; top: 42%;left: 28%;color: whilt;font-size: 45pt;'>￥-60</p><p style='font-size: 48px'>+</p>","null","","","","","","",""
"html-keyboard-response","181","521721","0.0-34.0-3.1","","null","<p style='font-size: 48px'>+</p>","null","","","","","","",""
"html-button-response","182","523486","0.0-34.0-0.2","","1762.9950000009267","","","","4","0","12","12","-12","10"
"html-keyboard-response","183","527993","0.0-34.0-1.2","","null","<p style='position: absolute; top: 27%;right: 25%'><img src='img/s2.bmp' width='200px'/></p><p style='position: absolute; top: 31%;right: 27%;color: whilt;font-size: 45pt;'>￥12</p><p style='position: absolute; top: 48%;right: 25%'><img src='img/s2.bmp' width='200px'/></p><p style='position: absolute; top: 53%;right: 27%;color: whilt;font-size: 45pt;'>￥-12</p><p style='font-size: 48px'>+</p>","null","","","","","","",""
"html-keyboard-response","184","528994","0.0-34.0-2.2","","null","<p style='position: absolute; top: 27%;right: 25%'><img src='img/s2.bmp' width='200px'/></p><p style='position: absolute; top: 31%;right: 27%;color: whilt;font-size: 45pt;'>￥12</p><p style='font-size: 48px'>+</p>","null","","","","","","",""
"html-keyboard-response","185","536009","0.0-34.0-3.2","","null","<p style='font-size: 48px'>+</p>","null","","","","","","",""
"html-keyboard-response","186","538010","0.0-35.0-0.0","","null","<p>今どれくらい楽しいかを教えてください</p>","null","","","","","","",""
"html-slider-response","187","539492","0.0-35.0-1.0","","1481.490000000107","<p>今どれくらい楽しいかを教えてください</p>","","66","","","","","",""
"html-keyboard-response","188","544406","0.0-35.0-2.0","","null","<p style=""font-size: 48px"">+</p>","null","","","","","","",""
"html-button-response","189","547109","0.0-36.0-0.0","","2700.145000000717","","","","4","-20","-49.6","0","-49.6","4"
"html-keyboard-response","190","551616","0.0-36.0-1.0","","null","<p style='position: absolute; top: 27%;right: 25%'><img src='img/s2.bmp' width='200px'/></p><p style='position: absolute; top: 31%;right: 27%;color: whilt;font-size: 45pt;'>￥0</p><p style='position: absolute; top: 48%;right: 25%'><img src='img/s2.bmp' width='200px'/></p><p style='position: absolute; top: 53%;right: 27%;color: whilt;font-size: 45pt;'>￥-49.6</p><p style='font-size: 48px'>+</p>","null","","","","","","",""
"html-keyboard-response","191","552625","0.0-36.0-2.0","","null","<p style='position: absolute; top: 48%;right: 25%'><img src='img/s2.bmp' width='200px'/></p><p style='position: absolute; top: 53%;right: 27%;color: whilt;font-size: 45pt;'>￥-49.6</p><p style='font-size: 48px'>+</p>","null","","","","","","",""
"html-keyboard-response","192","556837","0.0-36.0-3.0","","null","<p style='font-size: 48px'>+</p>","null","","","","","","",""
"html-button-response","193","558234","0.0-36.0-0.1","","1394.6799999993527","","","","4","60","0","216","0","7"
"html-keyboard-response","194","562741","0.0-36.0-1.1","","null","<p style='position: absolute; top: 27%;right: 25%'><img src='img/s2.bmp' width='200px'/></p><p style='position: absolute; top: 31%;right: 27%;color: whilt;font-size: 45pt;'>￥216</p><p style='position: absolute; top: 48%;right: 25%'><img src='img/s2.bmp' width='200px'/></p><p style='position: absolute; top: 53%;right: 27%;color: whilt;font-size: 45pt;'>￥0</p><p style='font-size: 48px'>+</p>","null","","","","","","",""
"html-keyboard-response","195","563752","0.0-36.0-2.1","","null","<p style='position: absolute; top: 48%;right: 25%'><img src='img/s2.bmp' width='200px'/></p><p style='position: absolute; top: 53%;right: 27%;color: whilt;font-size: 45pt;'>￥0</p><p style='font-size: 48px'>+</p>","null","","","","","","",""
"html-keyboard-response","196","567264","0.0-36.0-3.1","","null","<p style='font-size: 48px'>+</p>","null","","","","","","",""
"html-button-response","197","568193","0.0-36.0-0.2","","926.154999999213","","","","4","50","140","140","0","7"
"html-keyboard-response","198","572707","0.0-36.0-1.2","","null","<p style='position: absolute; top: 27%;right: 25%'><img src='img/s2.bmp' width='200px'/></p><p style='position: absolute; top: 31%;right: 27%;color: whilt;font-size: 45pt;'>￥140</p><p style='position: absolute; top: 48%;right: 25%'><img src='img/s2.bmp' width='200px'/></p><p style='position: absolute; top: 53%;right: 27%;color: whilt;font-size: 45pt;'>￥0</p><p style='font-size: 48px'>+</p>","null","","","","","","",""
"html-keyboard-response","199","573717","0.0-36.0-2.2","","null","<p style='position: absolute; top: 27%;right: 25%'><img src='img/s2.bmp' width='200px'/></p><p style='position: absolute; top: 31%;right: 27%;color: whilt;font-size: 45pt;'>￥140</p><p style='font-size: 48px'>+</p>","null","","","","","","",""
"html-keyboard-response","200","576522","0.0-36.0-3.2","","null","<p style='font-size: 48px'>+</p>","null","","","","","","",""
"html-keyboard-response","201","578525","0.0-37.0-0.0","","null","<p>今どれくらい楽しいかを教えてください</p>","null","","","","","","",""
"html-slider-response","202","581045","0.0-37.0-1.0","","2519.0500000008615","<p>今どれくらい楽しいかを教えてください</p>","","86","","","","","",""
"html-keyboard-response","203","585253","0.0-37.0-2.0","","null","<p style=""font-size: 48px"">+</p>","null","","","","","","",""
"html-button-response","204","587586","0.0-38.0-0.0","","2330.89500000095","","","","4","-40","0","0","-72.8","4"
"html-keyboard-response","205","592090","0.0-38.0-1.0","","null","<p style='position: absolute; top: 27%;right: 25%'><img src='img/s2.bmp' width='200px'/></p><p style='position: absolute; top: 31%;right: 27%;color: whilt;font-size: 45pt;'>￥0</p><p style='position: absolute; top: 48%;right: 25%'><img src='img/s2.bmp' width='200px'/></p><p style='position: absolute; top: 53%;right: 27%;color: whilt;font-size: 45pt;'>￥-72.8</p><p style='font-size: 48px'>+</p>","null","","","","","","",""
"html-keyboard-response","206","593103","0.0-38.0-2.0","","null","<p style='position: absolute; top: 27%;right: 25%'><img src='img/s2.bmp' width='200px'/></p><p style='position: absolute; top: 31%;right: 27%;color: whilt;font-size: 45pt;'>￥0</p><p style='font-size: 48px'>+</p>","null","","","","","","",""
"html-keyboard-response","207","597310","0.0-38.0-3.0","","null","<p style='font-size: 48px'>+</p>","null","","","","","","",""
"html-button-response","208","599357","0.0-38.0-0.1","","2044.869999999646","","","","4","-30","0","0","-50.4","4"
"html-keyboard-response","209","603863","0.0-38.0-1.1","","null","<p style='position: absolute; top: 27%;right: 25%'><img src='img/s2.bmp' width='200px'/></p><p style='position: absolute; top: 31%;right: 27%;color: whilt;font-size: 45pt;'>￥0</p><p style='position: absolute; top: 48%;right: 25%'><img src='img/s2.bmp' width='200px'/></p><p style='position: absolute; top: 53%;right: 27%;color: whilt;font-size: 45pt;'>￥-50.4</p><p style='font-size: 48px'>+</p>","null","","","","","","",""
"html-keyboard-response","210","604872","0.0-38.0-2.1","","null","<p style='position: absolute; top: 27%;right: 25%'><img src='img/s2.bmp' width='200px'/></p><p style='position: absolute; top: 31%;right: 27%;color: whilt;font-size: 45pt;'>￥0</p><p style='font-size: 48px'>+</p>","null","","","","","","",""
"html-keyboard-response","211","608385","0.0-38.0-3.1","","null","<p style='font-size: 48px'>+</p>","null","","","","","","",""
"html-button-response","212","609777","0.0-38.0-0.2","","1388.9899999994086","","","","4","50","111","111","0","7"
"html-keyboard-response","213","614283","0.0-38.0-1.2","","null","<p style='position: absolute; top: 27%;right: 25%'><img src='img/s2.bmp' width='200px'/></p><p style='position: absolute; top: 31%;right: 27%;color: whilt;font-size: 45pt;'>￥111</p><p style='position: absolute; top: 48%;right: 25%'><img src='img/s2.bmp' width='200px'/></p><p style='position: absolute; top: 53%;right: 27%;color: whilt;font-size: 45pt;'>￥0</p><p style='font-size: 48px'>+</p>","null","","","","","","",""
"html-keyboard-response","214","615292","0.0-38.0-2.2","","null","<p style='position: absolute; top: 27%;right: 25%'><img src='img/s2.bmp' width='200px'/></p><p style='position: absolute; top: 31%;right: 27%;color: whilt;font-size: 45pt;'>￥111</p><p style='font-size: 48px'>+</p>","null","","","","","","",""
"html-keyboard-response","215","620203","0.0-38.0-3.2","","null","<p style='font-size: 48px'>+</p>","null","","","","","","",""
"html-keyboard-response","216","622213","0.0-39.0-0.0","","null","<p>今どれくらい楽しいかを教えてください</p>","null","","","","","","",""
"html-slider-response","217","624693","0.0-39.0-1.0","","2478.660000000731","<p>今どれくらい楽しいかを教えてください</p>","","78","","","","","",""
"html-keyboard-response","218","630307","0.0-39.0-2.0","","null","<p style=""font-size: 48px"">+</p>","null","","","","","","",""
"html-button-response","219","631313","0.0-40.0-0.0","","1003.6199999995297","","","","4","30","0","94.8","0","7"
"html-keyboard-response","220","635817","0.0-40.0-1.0","","null","<p style='position: absolute; top: 27%;right: 25%'><img src='img/s2.bmp' width='200px'/></p><p style='position: absolute; top: 31%;right: 27%;color: whilt;font-size: 45pt;'>￥94.8</p><p style='position: absolute; top: 48%;right: 25%'><img src='img/s2.bmp' width='200px'/></p><p style='position: absolute; top: 53%;right: 27%;color: whilt;font-size: 45pt;'>￥0</p><p style='font-size: 48px'>+</p>","null","","","","","","",""
"html-keyboard-response","221","636820","0.0-40.0-2.0","","null","<p style='position: absolute; top: 48%;right: 25%'><img src='img/s2.bmp' width='200px'/></p><p style='position: absolute; top: 53%;right: 27%;color: whilt;font-size: 45pt;'>￥0</p><p style='font-size: 48px'>+</p>","null","","","","","","",""
"html-keyboard-response","222","643821","0.0-40.0-3.0","","null","<p style='font-size: 48px'>+</p>","null","","","","","","",""
"html-button-response","223","645230","0.0-40.0-0.1","","1407.709999999497","","","","1","20","36.4","36.4","0","8"
"html-keyboard-response","224","649739","0.0-40.0-1.1","","null","<p style='position: absolute; top: 38%;left: 25%'><img src='img/s2.bmp' width='200px'/></p><p style='position: absolute; top: 42%;left: 28%;color: whilt;font-size: 45pt;'>￥20</p><p style='font-size: 48px'>+</p>","null","","","","","","",""
"html-keyboard-response","225","650750","0.0-40.0-2.1","","null","<p style='position: absolute; top: 38%;left: 25%'><img src='img/s2.bmp' width='200px'/></p><p style='position: absolute; top: 42%;left: 28%;color: whilt;font-size: 45pt;'>￥20</p><p style='font-size: 48px'>+</p>","null","","","","","","",""
"html-keyboard-response","226","655651","0.0-40.0-3.1","","null","<p style='font-size: 48px'>+</p>","null","","","","","","",""
"html-keyboard-response","227","657666","0.0-41.0-0.0","","null","<p>今どれくらい楽しいかを教えてください</p>","null","","","","","","",""
"html-slider-response","228","659253","0.0-41.0-1.0","","1585.7799999994459","<p>今どれくらい楽しいかを教えてください</p>","","76","","","","","",""
"html-keyboard-response","229","664155","0.0-41.0-2.0","","null","<p style=""font-size: 48px"">+</p>","null","","","","","","",""
"html-button-response","230","666207","0.0-42.0-0.0","","2050.299999998999","","","","1","-60","0","0","-168","6"
"html-keyboard-response","231","670719","0.0-42.0-1.0","","null","<p style='position: absolute; top: 38%;left: 25%'><img src='img/s2.bmp' width='200px'/></p><p style='position: absolute; top: 42%;left: 28%;color: whilt;font-size: 45pt;'>￥-60</p><p style='font-size: 48px'>+</p>","null","","","","","","",""
"html-keyboard-response","232","671731","0.0-42.0-2.0","","null","<p style='position: absolute; top: 38%;left: 25%'><img src='img/s2.bmp' width='200px'/></p><p style='position: absolute; top: 42%;left: 28%;color: whilt;font-size: 45pt;'>￥-60</p><p style='font-size: 48px'>+</p>","null","","","","","","",""
"html-keyboard-response","233","676632","0.0-42.0-3.0","","null","<p style='font-size: 48px'>+</p>","null","","","","","","",""
"html-button-response","234","677817","0.0-42.0-0.1","","1183.074999999022","","","","4","60","189.6","189.6","0","8"
"html-keyboard-response","235","682323","0.0-42.0-1.1","","null","<p style='position: absolute; top: 27%;right: 25%'><img src='img/s2.bmp' width='200px'/></p><p style='position: absolute; top: 31%;right: 27%;color: whilt;font-size: 45pt;'>￥189.6</p><p style='position: absolute; top: 48%;right: 25%'><img src='img/s2.bmp' width='200px'/></p><p style='position: absolute; top: 53%;right: 27%;color: whilt;font-size: 45pt;'>￥0</p><p style='font-size: 48px'>+</p>","null","","","","","","",""
"html-keyboard-response","236","683333","0.0-42.0-2.1","","null","<p style='position: absolute; top: 27%;right: 25%'><img src='img/s2.bmp' width='200px'/></p><p style='position: absolute; top: 31%;right: 27%;color: whilt;font-size: 45pt;'>￥189.6</p><p style='font-size: 48px'>+</p>","null","","","","","","",""
"html-keyboard-response","237","685445","0.0-42.0-3.1","","null","<p style='font-size: 48px'>+</p>","null","","","","","","",""
"html-button-response","238","688449","0.0-42.0-0.2","","null","","","","null","0","-220","220","-220","4"
"html-keyboard-response","239","692963","0.0-42.0-1.2","","null","<p style='position: absolute; top: 48%;right: 25%'><img src='img/s2.bmp' width='200px'/></p><p style='position: absolute; top: 53%;right: 27%;color: whilt;font-size: 45pt;'>￥-220</p><p style='font-size: 48px'>+</p>","null","","","","","","",""
"html-keyboard-response","240","693966","0.0-42.0-2.2","","null","<p style='position: absolute; top: 48%;right: 25%'><img src='img/s2.bmp' width='200px'/></p><p style='position: absolute; top: 53%;right: 27%;color: whilt;font-size: 45pt;'>￥-220</p><p style='font-size: 48px'>+</p>","null","","","","","","",""
"html-keyboard-response","241","698868","0.0-42.0-3.2","","null","<p style='font-size: 48px'>+</p>","null","","","","","","",""
"html-keyboard-response","242","700869","0.0-43.0-0.0","","null","<p>今どれくらい楽しいかを教えてください</p>","null","","","","","","",""
"html-slider-response","243","703018","0.0-43.0-1.0","","2148.719999999157","<p>今どれくらい楽しいかを教えてください</p>","","80","","","","","",""
"html-keyboard-response","244","707931","0.0-43.0-2.0","","null","<p style=""font-size: 48px"">+</p>","null","","","","","","",""
"html-button-response","245","709183","0.0-44.0-0.0","","1251.3699999999953","","","","4","0","60","60","-60","4"
"html-keyboard-response","246","713700","0.0-44.0-1.0","","null","<p style='position: absolute; top: 27%;right: 25%'><img src='img/s2.bmp' width='200px'/></p><p style='position: absolute; top: 31%;right: 27%;color: whilt;font-size: 45pt;'>￥60</p><p style='position: absolute; top: 48%;right: 25%'><img src='img/s2.bmp' width='200px'/></p><p style='position: absolute; top: 53%;right: 27%;color: whilt;font-size: 45pt;'>￥-60</p><p style='font-size: 48px'>+</p>","null","","","","","","",""
"html-keyboard-response","247","714705","0.0-44.0-2.0","","null","<p style='position: absolute; top: 27%;right: 25%'><img src='img/s2.bmp' width='200px'/></p><p style='position: absolute; top: 31%;right: 27%;color: whilt;font-size: 45pt;'>￥60</p><p style='font-size: 48px'>+</p>","null","","","","","","",""
"html-keyboard-response","248","718215","0.0-44.0-3.0","","null","<p style='font-size: 48px'>+</p>","null","","","","","","",""
"html-button-response","249","720734","0.0-44.0-0.1","","2517.130000000121","","","","4","-30","0","0","-66","8"
"html-keyboard-response","250","725247","0.0-44.0-1.1","","null","<p style='position: absolute; top: 27%;right: 25%'><img src='img/s2.bmp' width='200px'/></p><p style='position: absolute; top: 31%;right: 27%;color: whilt;font-size: 45pt;'>￥0</p><p style='position: absolute; top: 48%;right: 25%'><img src='img/s2.bmp' width='200px'/></p><p style='position: absolute; top: 53%;right: 27%;color: whilt;font-size: 45pt;'>￥-66</p><p style='font-size: 48px'>+</p>","null","","","","","","",""
"html-keyboard-response","251","726264","0.0-44.0-2.1","","null","<p style='position: absolute; top: 27%;right: 25%'><img src='img/s2.bmp' width='200px'/></p><p style='position: absolute; top: 31%;right: 27%;color: whilt;font-size: 45pt;'>￥0</p><p style='font-size: 48px'>+</p>","null","","","","","","",""
"html-keyboard-response","252","731165","0.0-44.0-3.1","","null","<p style='font-size: 48px'>+</p>","null","","","","","","",""
"html-keyboard-response","253","733177","0.0-45.0-0.0","","null","<p>今どれくらい楽しいかを教えてください</p>","null","","","","","","",""
"html-slider-response","254","736814","0.0-45.0-1.0","","3636.474999999278","<p>今どれくらい楽しいかを教えてください</p>","","24","","","","","",""
"html-keyboard-response","255","743826","0.0-45.0-2.0","","null","<p style=""font-size: 48px"">+</p>","null","","","","","","",""
"html-button-response","256","745519","0.0-46.0-0.0","","1691.4349999988917","","","","4","30","66.6","66.6","0","6"
"html-keyboard-response","257","750029","0.0-46.0-1.0","","null","<p style='position: absolute; top: 27%;right: 25%'><img src='img/s2.bmp' width='200px'/></p><p style='position: absolute; top: 31%;right: 27%;color: whilt;font-size: 45pt;'>￥66.6</p><p style='position: absolute; top: 48%;right: 25%'><img src='img/s2.bmp' width='200px'/></p><p style='position: absolute; top: 53%;right: 27%;color: whilt;font-size: 45pt;'>￥0</p><p style='font-size: 48px'>+</p>","null","","","","","","",""
"html-keyboard-response","258","751042","0.0-46.0-2.0","","null","<p style='position: absolute; top: 27%;right: 25%'><img src='img/s2.bmp' width='200px'/></p><p style='position: absolute; top: 31%;right: 27%;color: whilt;font-size: 45pt;'>￥66.6</p><p style='font-size: 48px'>+</p>","null","","","","","","",""
"html-keyboard-response","259","755943","0.0-46.0-3.0","","null","<p style='font-size: 48px'>+</p>","null","","","","","","",""
"html-button-response","260","756967","0.0-46.0-0.1","","1022.0250000002561","","","","4","60","0","109.2","0","6"
"html-keyboard-response","261","761473","0.0-46.0-1.1","","null","<p style='position: absolute; top: 27%;right: 25%'><img src='img/s2.bmp' width='200px'/></p><p style='position: absolute; top: 31%;right: 27%;color: whilt;font-size: 45pt;'>￥109.2</p><p style='position: absolute; top: 48%;right: 25%'><img src='img/s2.bmp' width='200px'/></p><p style='position: absolute; top: 53%;right: 27%;color: whilt;font-size: 45pt;'>￥0</p><p style='font-size: 48px'>+</p>","null","","","","","","",""
"html-keyboard-response","262","762478","0.0-46.0-2.1","","null","<p style='position: absolute; top: 48%;right: 25%'><img src='img/s2.bmp' width='200px'/></p><p style='position: absolute; top: 53%;right: 27%;color: whilt;font-size: 45pt;'>￥0</p><p style='font-size: 48px'>+</p>","null","","","","","","",""
"html-keyboard-response","263","766680","0.0-46.0-3.1","","null","<p style='font-size: 48px'>+</p>","null","","","","","","",""
"html-keyboard-response","264","768683","0.0-47.0-0.0","","null","<p>今どれくらい楽しいかを教えてください</p>","null","","","","","","",""
"html-slider-response","265","772685","0.0-47.0-1.0","","null","<p>今どれくらい楽しいかを教えてください</p>","","null","","","","","",""
"html-keyboard-response","266","774788","0.0-47.0-2.0","","null","<p style=""font-size: 48px"">+</p>","null","","","","","","",""
"html-button-response","267","776738","0.0-48.0-0.0","","1947.7850000002654","","","","4","50","0","110","0","4"
"html-keyboard-response","268","781254","0.0-48.0-1.0","","null","<p style='position: absolute; top: 27%;right: 25%'><img src='img/s2.bmp' width='200px'/></p><p style='position: absolute; top: 31%;right: 27%;color: whilt;font-size: 45pt;'>￥110</p><p style='position: absolute; top: 48%;right: 25%'><img src='img/s2.bmp' width='200px'/></p><p style='position: absolute; top: 53%;right: 27%;color: whilt;font-size: 45pt;'>￥0</p><p style='font-size: 48px'>+</p>","null","","","","","","",""
"html-keyboard-response","269","782255","0.0-48.0-2.0","","null","<p style='position: absolute; top: 48%;right: 25%'><img src='img/s2.bmp' width='200px'/></p><p style='position: absolute; top: 53%;right: 27%;color: whilt;font-size: 45pt;'>￥0</p><p style='font-size: 48px'>+</p>","null","","","","","","",""
"html-keyboard-response","270","784355","0.0-48.0-3.0","","null","<p style='font-size: 48px'>+</p>","null","","","","","","",""
"html-button-response","271","785809","0.0-48.0-0.1","","1451.5999999984633","","","","2","0","60","60","-60","6"
"html-keyboard-response","272","790312","0.0-48.0-1.1","","null","<p style='position: absolute; top: 27%;right: 25%'><img src='img/s2.bmp' width='200px'/></p><p style='position: absolute; top: 31%;right: 27%;color: whilt;font-size: 45pt;'>￥60</p><p style='position: absolute; top: 48%;right: 25%'><img src='img/s2.bmp' width='200px'/></p><p style='position: absolute; top: 53%;right: 27%;color: whilt;font-size: 45pt;'>￥-60</p><p style='font-size: 48px'>+</p>","null","","","","","","",""
"html-keyboard-response","273","791324","0.0-48.0-2.1","","null","<p style='position: absolute; top: 27%;right: 25%'><img src='img/s2.bmp' width='200px'/></p><p style='position: absolute; top: 31%;right: 27%;color: whilt;font-size: 45pt;'>￥60</p><p style='font-size: 48px'>+</p>","null","","","","","","",""
"html-keyboard-response","274","793440","0.0-48.0-3.1","","null","<p style='font-size: 48px'>+</p>","null","","","","","","",""
"html-button-response","275","795576","0.0-48.0-0.2","","2134.0500000006286","","","","4","0","6","6","-6","9"
"html-keyboard-response","276","800087","0.0-48.0-1.2","","null","<p style='position: absolute; top: 27%;right: 25%'><img src='img/s2.bmp' width='200px'/></p><p style='position: absolute; top: 31%;right: 27%;color: whilt;font-size: 45pt;'>￥6</p><p style='position: absolute; top: 48%;right: 25%'><img src='img/s2.bmp' width='200px'/></p><p style='position: absolute; top: 53%;right: 27%;color: whilt;font-size: 45pt;'>￥-6</p><p style='font-size: 48px'>+</p>","null","","","","","","",""
"html-keyboard-response","277","801099","0.0-48.0-2.2","","null","<p style='position: absolute; top: 27%;right: 25%'><img src='img/s2.bmp' width='200px'/></p><p style='position: absolute; top: 31%;right: 27%;color: whilt;font-size: 45pt;'>￥6</p><p style='font-size: 48px'>+</p>","null","","","","","","",""
"html-keyboard-response","278","803907","0.0-48.0-3.2","","null","<p style='font-size: 48px'>+</p>","null","","","","","","",""
"html-keyboard-response","279","805908","0.0-49.0-0.0","","null","<p>今どれくらい楽しいかを教えてください</p>","null","","","","","","",""
"html-slider-response","280","807372","0.0-49.0-1.0","","1463.5099999995437","<p>今どれくらい楽しいかを教えてください</p>","","50","","","","","",""
"html-keyboard-response","281","812973","0.0-49.0-2.0","","null","<p style=""font-size: 48px"">+</p>","null","","","","","","",""
"html-keyboard-response","282","814961","0.0-50.0-0.0","","1987.6299999996554","<p style='text-align:left'>今から5分休憩に入ります</p><p style='text-align:left'>休憩がいらないならスペースキーを押してください</p>","32","","","","","","",""
"html-keyboard-response","283","819962","0.0-50.0-1.0","","null","<p style='text-align:left'>5秒内に実験に入ります</p>","null","","","","","","",""
"html-button-response","284","822137","0.0-51.0-0.0","","2173.494999999064","","","","1","-20","0","0","-56","5"
"html-keyboard-response","285","826647","0.0-51.0-1.0","","null","<p style='position: absolute; top: 38%;left: 25%'><img src='img/s2.bmp' width='200px'/></p><p style='position: absolute; top: 42%;left: 28%;color: whilt;font-size: 45pt;'>￥-20</p><p style='font-size: 48px'>+</p>","null","","","","","","",""
"html-keyboard-response","286","827655","0.0-51.0-2.0","","null","<p style='position: absolute; top: 38%;left: 25%'><img src='img/s2.bmp' width='200px'/></p><p style='position: absolute; top: 42%;left: 28%;color: whilt;font-size: 45pt;'>￥-20</p><p style='font-size: 48px'>+</p>","null","","","","","","",""
"html-keyboard-response","287","833255","0.0-51.0-3.0","","null","<p style='font-size: 48px'>+</p>","null","","","","","","",""
"html-button-response","288","834204","0.0-51.0-0.1","","946.40500000061","","","","4","0","-15","15","-15","7"
"html-keyboard-response","289","838712","0.0-51.0-1.1","","null","<p style='position: absolute; top: 27%;right: 25%'><img src='img/s2.bmp' width='200px'/></p><p style='position: absolute; top: 31%;right: 27%;color: whilt;font-size: 45pt;'>￥15</p><p style='position: absolute; top: 48%;right: 25%'><img src='img/s2.bmp' width='200px'/></p><p style='position: absolute; top: 53%;right: 27%;color: whilt;font-size: 45pt;'>￥-15</p><p style='font-size: 48px'>+</p>","null","","","","","","",""
"html-keyboard-response","290","839715","0.0-51.0-2.1","","null","<p style='position: absolute; top: 48%;right: 25%'><img src='img/s2.bmp' width='200px'/></p><p style='position: absolute; top: 53%;right: 27%;color: whilt;font-size: 45pt;'>￥-15</p><p style='font-size: 48px'>+</p>","null","","","","","","",""
"html-keyboard-response","291","844628","0.0-51.0-3.1","","null","<p style='font-size: 48px'>+</p>","null","","","","","","",""
"html-keyboard-response","292","846633","0.0-52.0-0.0","","null","<p>今どれくらい楽しいかを教えてください</p>","null","","","","","","",""
"html-slider-response","293","847725","0.0-52.0-1.0","","1091.9400000002934","<p>今どれくらい楽しいかを教えてください</p>","","44","","","","","",""
"html-keyboard-response","294","851227","0.0-52.0-2.0","","null","<p style=""font-size: 48px"">+</p>","null","","","","","","",""
"html-button-response","295","852911","0.0-53.0-0.0","","1681.7350000001024","","","","4","40","0","112","0","3"
"html-keyboard-response","296","857419","0.0-53.0-1.0","","null","<p style='position: absolute; top: 27%;right: 25%'><img src='img/s2.bmp' width='200px'/></p><p style='position: absolute; top: 31%;right: 27%;color: whilt;font-size: 45pt;'>￥112</p><p style='position: absolute; top: 48%;right: 25%'><img src='img/s2.bmp' width='200px'/></p><p style='position: absolute; top: 53%;right: 27%;color: whilt;font-size: 45pt;'>￥0</p><p style='font-size: 48px'>+</p>","null","","","","","","",""
"html-keyboard-response","297","858420","0.0-53.0-2.0","","null","<p style='position: absolute; top: 48%;right: 25%'><img src='img/s2.bmp' width='200px'/></p><p style='position: absolute; top: 53%;right: 27%;color: whilt;font-size: 45pt;'>￥0</p><p style='font-size: 48px'>+</p>","null","","","","","","",""
"html-keyboard-response","298","862627","0.0-53.0-3.0","","null","<p style='font-size: 48px'>+</p>","null","","","","","","",""
"html-button-response","299","864790","0.0-53.0-0.1","","2160.675000000978","","","","4","20","33.6","33.6","0","4"
"html-keyboard-response","300","869303","0.0-53.0-1.1","","null","<p style='position: absolute; top: 27%;right: 25%'><img src='img/s2.bmp' width='200px'/></p><p style='position: absolute; top: 31%;right: 27%;color: whilt;font-size: 45pt;'>￥33.6</p><p style='position: absolute; top: 48%;right: 25%'><img src='img/s2.bmp' width='200px'/></p><p style='position: absolute; top: 53%;right: 27%;color: whilt;font-size: 45pt;'>￥0</p><p style='font-size: 48px'>+</p>","null","","","","","","",""
"html-keyboard-response","301","870304","0.0-53.0-2.1","","null","<p style='position: absolute; top: 27%;right: 25%'><img src='img/s2.bmp' width='200px'/></p><p style='position: absolute; top: 31%;right: 27%;color: whilt;font-size: 45pt;'>￥33.6</p><p style='font-size: 48px'>+</p>","null","","","","","","",""
"html-keyboard-response","302","873815","0.0-53.0-3.1","","null","<p style='font-size: 48px'>+</p>","null","","","","","","",""
"html-button-response","303","875508","0.0-53.0-0.2","","1690.3300000012387","","","","1","-50","0","0","-140","9"
"html-keyboard-response","304","880019","0.0-53.0-1.2","","null","<p style='position: absolute; top: 38%;left: 25%'><img src='img/s2.bmp' width='200px'/></p><p style='position: absolute; top: 42%;left: 28%;color: whilt;font-size: 45pt;'>￥-50</p><p style='font-size: 48px'>+</p>","null","","","","","","",""
"html-keyboard-response","305","881031","0.0-53.0-2.2","","null","<p style='position: absolute; top: 38%;left: 25%'><img src='img/s2.bmp' width='200px'/></p><p style='position: absolute; top: 42%;left: 28%;color: whilt;font-size: 45pt;'>￥-50</p><p style='font-size: 48px'>+</p>","null","","","","","","",""
"html-keyboard-response","306","883832","0.0-53.0-3.2","","null","<p style='font-size: 48px'>+</p>","null","","","","","","",""
"html-keyboard-response","307","885834","0.0-54.0-0.0","","null","<p>今どれくらい楽しいかを教えてください</p>","null","","","","","","",""
"html-slider-response","308","888196","0.0-54.0-1.0","","2361.6400000009453","<p>今どれくらい楽しいかを教えてください</p>","","61","","","","","",""
"html-keyboard-response","309","892407","0.0-54.0-2.0","","null","<p style=""font-size: 48px"">+</p>","null","","","","","","",""
"html-button-response","310","894242","0.0-55.0-0.0","","1832.9300000005169","","","","4","0","-96","96","-96","6"
"html-keyboard-response","311","898747","0.0-55.0-1.0","","null","<p style='position: absolute; top: 27%;right: 25%'><img src='img/s2.bmp' width='200px'/></p><p style='position: absolute; top: 31%;right: 27%;color: whilt;font-size: 45pt;'>￥96</p><p style='position: absolute; top: 48%;right: 25%'><img src='img/s2.bmp' width='200px'/></p><p style='position: absolute; top: 53%;right: 27%;color: whilt;font-size: 45pt;'>￥-96</p><p style='font-size: 48px'>+</p>","null","","","","","","",""
"html-keyboard-response","312","899761","0.0-55.0-2.0","","null","<p style='position: absolute; top: 48%;right: 25%'><img src='img/s2.bmp' width='200px'/></p><p style='position: absolute; top: 53%;right: 27%;color: whilt;font-size: 45pt;'>￥-96</p><p style='font-size: 48px'>+</p>","null","","","","","","",""
"html-keyboard-response","313","902567","0.0-55.0-3.0","","null","<p style='font-size: 48px'>+</p>","null","","","","","","",""
"html-button-response","314","904074","0.0-55.0-0.1","","1503.8299999997253","","","","4","30","0","84","0","4"
"html-keyboard-response","315","908585","0.0-55.0-1.1","","null","<p style='position: absolute; top: 27%;right: 25%'><img src='img/s2.bmp' width='200px'/></p><p style='position: absolute; top: 31%;right: 27%;color: whilt;font-size: 45pt;'>￥84</p><p style='position: absolute; top: 48%;right: 25%'><img src='img/s2.bmp' width='200px'/></p><p style='position: absolute; top: 53%;right: 27%;color: whilt;font-size: 45pt;'>￥0</p><p style='font-size: 48px'>+</p>","null","","","","","","",""
"html-keyboard-response","316","909589","0.0-55.0-2.1","","null","<p style='position: absolute; top: 48%;right: 25%'><img src='img/s2.bmp' width='200px'/></p><p style='position: absolute; top: 53%;right: 27%;color: whilt;font-size: 45pt;'>￥0</p><p style='font-size: 48px'>+</p>","null","","","","","","",""
"html-keyboard-response","317","915198","0.0-55.0-3.1","","null","<p style='font-size: 48px'>+</p>","null","","","","","","",""
"html-button-response","318","916840","0.0-55.0-0.2","","1639.329999999958","","","","4","0","60","60","-60","8"
"html-keyboard-response","319","921352","0.0-55.0-1.2","","null","<p style='position: absolute; top: 27%;right: 25%'><img src='img/s2.bmp' width='200px'/></p><p style='position: absolute; top: 31%;right: 27%;color: whilt;font-size: 45pt;'>￥60</p><p style='position: absolute; top: 48%;right: 25%'><img src='img/s2.bmp' width='200px'/></p><p style='position: absolute; top: 53%;right: 27%;color: whilt;font-size: 45pt;'>￥-60</p><p style='font-size: 48px'>+</p>","null","","","","","","",""
"html-keyboard-response","320","922357","0.0-55.0-2.2","","null","<p style='position: absolute; top: 27%;right: 25%'><img src='img/s2.bmp' width='200px'/></p><p style='position: absolute; top: 31%;right: 27%;color: whilt;font-size: 45pt;'>￥60</p><p style='font-size: 48px'>+</p>","null","","","","","","",""
"html-keyboard-response","321","927964","0.0-55.0-3.2","","null","<p style='font-size: 48px'>+</p>","null","","","","","","",""
"html-keyboard-response","322","929972","0.0-56.0-0.0","","null","<p>今どれくらい楽しいかを教えてください</p>","null","","","","","","",""
"html-slider-response","323","933973","0.0-56.0-1.0","","null","<p>今どれくらい楽しいかを教えてください</p>","","null","","","","","",""
"html-keyboard-response","324","940974","0.0-56.0-2.0","","null","<p style=""font-size: 48px"">+</p>","null","","","","","","",""
"html-button-response","325","942302","0.0-57.0-0.0","","1325.405000001425","","","","1","-40","0","0","-144","3"
"html-keyboard-response","326","946812","0.0-57.0-1.0","","null","<p style='position: absolute; top: 38%;left: 25%'><img src='img/s2.bmp' width='200px'/></p><p style='position: absolute; top: 42%;left: 28%;color: whilt;font-size: 45pt;'>￥-40</p><p style='font-size: 48px'>+</p>","null","","","","","","",""
"html-keyboard-response","327","947822","0.0-57.0-2.0","","null","<p style='position: absolute; top: 38%;left: 25%'><img src='img/s2.bmp' width='200px'/></p><p style='position: absolute; top: 42%;left: 28%;color: whilt;font-size: 45pt;'>￥-40</p><p style='font-size: 48px'>+</p>","null","","","","","","",""
"html-keyboard-response","328","951323","0.0-57.0-3.0","","null","<p style='font-size: 48px'>+</p>","null","","","","","","",""
"html-button-response","329","953369","0.0-57.0-0.1","","2043.6100000006845","","","","4","-40","-99.2","0","-99.2","4"
"html-keyboard-response","330","957873","0.0-57.0-1.1","","null","<p style='position: absolute; top: 27%;right: 25%'><img src='img/s2.bmp' width='200px'/></p><p style='position: absolute; top: 31%;right: 27%;color: whilt;font-size: 45pt;'>￥0</p><p style='position: absolute; top: 48%;right: 25%'><img src='img/s2.bmp' width='200px'/></p><p style='position: absolute; top: 53%;right: 27%;color: whilt;font-size: 45pt;'>￥-99.2</p><p style='font-size: 48px'>+</p>","null","","","","","","",""
"html-keyboard-response","331","958878","0.0-57.0-2.1","","null","<p style='position: absolute; top: 48%;right: 25%'><img src='img/s2.bmp' width='200px'/></p><p style='position: absolute; top: 53%;right: 27%;color: whilt;font-size: 45pt;'>￥-99.2</p><p style='font-size: 48px'>+</p>","null","","","","","","",""
"html-keyboard-response","332","965186","0.0-57.0-3.1","","null","<p style='font-size: 48px'>+</p>","null","","","","","","",""
"html-keyboard-response","333","967187","0.0-58.0-0.0","","null","<p>今どれくらい楽しいかを教えてください</p>","null","","","","","","",""
"html-slider-response","334","969524","0.0-58.0-1.0","","2336.315000000526","<p>今どれくらい楽しいかを教えてください</p>","","77","","","","","",""
"html-keyboard-response","335","974439","0.0-58.0-2.0","","null","<p style=""font-size: 48px"">+</p>","null","","","","","","",""
"html-button-response","336","976783","0.0-59.0-0.0","","2342.7449999999953","","","","4","-30","-94.8","0","-94.8","8"
"html-keyboard-response","337","981295","0.0-59.0-1.0","","null","<p style='position: absolute; top: 27%;right: 25%'><img src='img/s2.bmp' width='200px'/></p><p style='position: absolute; top: 31%;right: 27%;color: whilt;font-size: 45pt;'>￥0</p><p style='position: absolute; top: 48%;right: 25%'><img src='img/s2.bmp' width='200px'/></p><p style='position: absolute; top: 53%;right: 27%;color: whilt;font-size: 45pt;'>￥-94.8</p><p style='font-size: 48px'>+</p>","null","","","","","","",""
"html-keyboard-response","338","982305","0.0-59.0-2.0","","null","<p style='position: absolute; top: 48%;right: 25%'><img src='img/s2.bmp' width='200px'/></p><p style='position: absolute; top: 53%;right: 27%;color: whilt;font-size: 45pt;'>￥-94.8</p><p style='font-size: 48px'>+</p>","null","","","","","","",""
"html-keyboard-response","339","985122","0.0-59.0-3.0","","null","<p style='font-size: 48px'>+</p>","null","","","","","","",""
"html-button-response","340","987298","0.0-59.0-0.1","","2173.8800000002375","","","","4","-30","-74.4","0","-74.4","7"
"html-keyboard-response","341","991803","0.0-59.0-1.1","","null","<p style='position: absolute; top: 27%;right: 25%'><img src='img/s2.bmp' width='200px'/></p><p style='position: absolute; top: 31%;right: 27%;color: whilt;font-size: 45pt;'>￥0</p><p style='position: absolute; top: 48%;right: 25%'><img src='img/s2.bmp' width='200px'/></p><p style='position: absolute; top: 53%;right: 27%;color: whilt;font-size: 45pt;'>￥-74.4</p><p style='font-size: 48px'>+</p>","null","","","","","","",""
"html-keyboard-response","342","992806","0.0-59.0-2.1","","null","<p style='position: absolute; top: 48%;right: 25%'><img src='img/s2.bmp' width='200px'/></p><p style='position: absolute; top: 53%;right: 27%;color: whilt;font-size: 45pt;'>￥-74.4</p><p style='font-size: 48px'>+</p>","null","","","","","","",""
"html-keyboard-response","343","996315","0.0-59.0-3.1","","null","<p style='font-size: 48px'>+</p>","null","","","","","","",""
"html-keyboard-response","344","998317","0.0-60.0-0.0","","null","<p>今どれくらい楽しいかを教えてください</p>","null","","","","","","",""
"html-slider-response","345","1000107","0.0-60.0-1.0","","1788.7900000006193","<p>今どれくらい楽しいかを教えてください</p>","","77","","","","","",""
"html-keyboard-response","346","1002912","0.0-60.0-2.0","","null","<p style=""font-size: 48px"">+</p>","null","","","","","","",""
"html-button-response","347","1004619","0.0-61.0-0.0","","1704.7299999993993","","","","1","-60","-300","0","-300","5"
"html-keyboard-response","348","1009123","0.0-61.0-1.0","","null","<p style='position: absolute; top: 38%;left: 25%'><img src='img/s2.bmp' width='200px'/></p><p style='position: absolute; top: 42%;left: 28%;color: whilt;font-size: 45pt;'>￥-60</p><p style='font-size: 48px'>+</p>","null","","","","","","",""
"html-keyboard-response","349","1010134","0.0-61.0-2.0","","null","<p style='position: absolute; top: 38%;left: 25%'><img src='img/s2.bmp' width='200px'/></p><p style='position: absolute; top: 42%;left: 28%;color: whilt;font-size: 45pt;'>￥-60</p><p style='font-size: 48px'>+</p>","null","","","","","","",""
"html-keyboard-response","350","1015041","0.0-61.0-3.0","","null","<p style='font-size: 48px'>+</p>","null","","","","","","",""
"html-button-response","351","1016713","0.0-61.0-0.1","","1669.1599999994505","","","","4","0","-52.8","52.8","-52.8","10"
"html-keyboard-response","352","1021227","0.0-61.0-1.1","","null","<p style='position: absolute; top: 27%;right: 25%'><img src='img/s2.bmp' width='200px'/></p><p style='position: absolute; top: 31%;right: 27%;color: whilt;font-size: 45pt;'>￥52.8</p><p style='position: absolute; top: 48%;right: 25%'><img src='img/s2.bmp' width='200px'/></p><p style='position: absolute; top: 53%;right: 27%;color: whilt;font-size: 45pt;'>￥-52.8</p><p style='font-size: 48px'>+</p>","null","","","","","","",""
"html-keyboard-response","353","1022238","0.0-61.0-2.1","","null","<p style='position: absolute; top: 48%;right: 25%'><img src='img/s2.bmp' width='200px'/></p><p style='position: absolute; top: 53%;right: 27%;color: whilt;font-size: 45pt;'>￥-52.8</p><p style='font-size: 48px'>+</p>","null","","","","","","",""
"html-keyboard-response","354","1027139","0.0-61.0-3.1","","null","<p style='font-size: 48px'>+</p>","null","","","","","","",""
"html-button-response","355","1027930","0.0-61.0-0.2","","787.9599999996135","","","","4","60","0","148.8","0","4"
"html-keyboard-response","356","1032437","0.0-61.0-1.2","","null","<p style='position: absolute; top: 27%;right: 25%'><img src='img/s2.bmp' width='200px'/></p><p style='position: absolute; top: 31%;right: 27%;color: whilt;font-size: 45pt;'>￥148.8</p><p style='position: absolute; top: 48%;right: 25%'><img src='img/s2.bmp' width='200px'/></p><p style='position: absolute; top: 53%;right: 27%;color: whilt;font-size: 45pt;'>￥0</p><p style='font-size: 48px'>+</p>","null","","","","","","",""
"html-keyboard-response","357","1033450","0.0-61.0-2.2","","null","<p style='position: absolute; top: 48%;right: 25%'><img src='img/s2.bmp' width='200px'/></p><p style='position: absolute; top: 53%;right: 27%;color: whilt;font-size: 45pt;'>￥0</p><p style='font-size: 48px'>+</p>","null","","","","","","",""
"html-keyboard-response","358","1036262","0.0-61.0-3.2","","null","<p style='font-size: 48px'>+</p>","null","","","","","","",""
"html-keyboard-response","359","1038263","0.0-62.0-0.0","","null","<p>今どれくらい楽しいかを教えてください</p>","null","","","","","","",""
"html-slider-response","360","1041163","0.0-62.0-1.0","","2899.2349999990547","<p>今どれくらい楽しいかを教えてください</p>","","27","","","","","",""
"html-keyboard-response","361","1046765","0.0-62.0-2.0","","null","<p style=""font-size: 48px"">+</p>","null","","","","","","",""
"html-button-response","362","1048128","0.0-63.0-0.0","","1362.2950000007404","","","","1","-30","-150","0","-150","6"
"html-keyboard-response","363","1052634","0.0-63.0-1.0","","null","<p style='position: absolute; top: 38%;left: 25%'><img src='img/s2.bmp' width='200px'/></p><p style='position: absolute; top: 42%;left: 28%;color: whilt;font-size: 45pt;'>￥-30</p><p style='font-size: 48px'>+</p>","null","","","","","","",""
"html-keyboard-response","364","1053640","0.0-63.0-2.0","","null","<p style='position: absolute; top: 38%;left: 25%'><img src='img/s2.bmp' width='200px'/></p><p style='position: absolute; top: 42%;left: 28%;color: whilt;font-size: 45pt;'>￥-30</p><p style='font-size: 48px'>+</p>","null","","","","","","",""
"html-keyboard-response","365","1059253","0.0-63.0-3.0","","null","<p style='font-size: 48px'>+</p>","null","","","","","","",""
"html-button-response","366","1060610","0.0-63.0-0.1","","1354.2049999996088","","","","4","40","0","88","0","8"
"html-keyboard-response","367","1065119","0.0-63.0-1.1","","null","<p style='position: absolute; top: 27%;right: 25%'><img src='img/s2.bmp' width='200px'/></p><p style='position: absolute; top: 31%;right: 27%;color: whilt;font-size: 45pt;'>￥88</p><p style='position: absolute; top: 48%;right: 25%'><img src='img/s2.bmp' width='200px'/></p><p style='position: absolute; top: 53%;right: 27%;color: whilt;font-size: 45pt;'>￥0</p><p style='font-size: 48px'>+</p>","null","","","","","","",""
"html-keyboard-response","368","1066130","0.0-63.0-2.1","","null","<p style='position: absolute; top: 48%;right: 25%'><img src='img/s2.bmp' width='200px'/></p><p style='position: absolute; top: 53%;right: 27%;color: whilt;font-size: 45pt;'>￥0</p><p style='font-size: 48px'>+</p>","null","","","","","","",""
"html-keyboard-response","369","1071732","0.0-63.0-3.1","","null","<p style='font-size: 48px'>+</p>","null","","","","","","",""
"html-button-response","370","1073761","0.0-63.0-0.2","","2026.754999998957","","","","4","-50","-110","0","-110","6"
"html-keyboard-response","371","1078275","0.0-63.0-1.2","","null","<p style='position: absolute; top: 27%;right: 25%'><img src='img/s2.bmp' width='200px'/></p><p style='position: absolute; top: 31%;right: 27%;color: whilt;font-size: 45pt;'>￥0</p><p style='position: absolute; top: 48%;right: 25%'><img src='img/s2.bmp' width='200px'/></p><p style='position: absolute; top: 53%;right: 27%;color: whilt;font-size: 45pt;'>￥-110</p><p style='font-size: 48px'>+</p>","null","","","","","","",""
"html-keyboard-response","372","1079281","0.0-63.0-2.2","","null","<p style='position: absolute; top: 48%;right: 25%'><img src='img/s2.bmp' width='200px'/></p><p style='position: absolute; top: 53%;right: 27%;color: whilt;font-size: 45pt;'>￥-110</p><p style='font-size: 48px'>+</p>","null","","","","","","",""
"html-keyboard-response","373","1086282","0.0-63.0-3.2","","null","<p style='font-size: 48px'>+</p>","null","","","","","","",""
"html-keyboard-response","374","1088283","0.0-64.0-0.0","","null","<p>今どれくらい楽しいかを教えてください</p>","null","","","","","","",""
"html-slider-response","375","1090323","0.0-64.0-1.0","","2039.035000001546","<p>今どれくらい楽しいかを教えてください</p>","","82","","","","","",""
"html-keyboard-response","376","1093123","0.0-64.0-2.0","","null","<p style=""font-size: 48px"">+</p>","null","","","","","","",""
"html-button-response","377","1095052","0.0-65.0-0.0","","1927.5199999990873","","","","1","-40","0","0","-126.4","8"
"html-keyboard-response","378","1099555","0.0-65.0-1.0","","null","<p style='position: absolute; top: 38%;left: 25%'><img src='img/s2.bmp' width='200px'/></p><p style='position: absolute; top: 42%;left: 28%;color: whilt;font-size: 45pt;'>￥-40</p><p style='font-size: 48px'>+</p>","null","","","","","","",""
"html-keyboard-response","379","1100570","0.0-65.0-2.0","","null","<p style='position: absolute; top: 38%;left: 25%'><img src='img/s2.bmp' width='200px'/></p><p style='position: absolute; top: 42%;left: 28%;color: whilt;font-size: 45pt;'>￥-40</p><p style='font-size: 48px'>+</p>","null","","","","","","",""
"html-keyboard-response","380","1103372","0.0-65.0-3.0","","null","<p style='font-size: 48px'>+</p>","null","","","","","","",""
"html-button-response","381","1104298","0.0-65.0-0.1","","923.9099999994505","","","","4","40","0","88.8","0","7"
"html-keyboard-response","382","1108811","0.0-65.0-1.1","","null","<p style='position: absolute; top: 27%;right: 25%'><img src='img/s2.bmp' width='200px'/></p><p style='position: absolute; top: 31%;right: 27%;color: whilt;font-size: 45pt;'>￥88.8</p><p style='position: absolute; top: 48%;right: 25%'><img src='img/s2.bmp' width='200px'/></p><p style='position: absolute; top: 53%;right: 27%;color: whilt;font-size: 45pt;'>￥0</p><p style='font-size: 48px'>+</p>","null","","","","","","",""
"html-keyboard-response","383","1109812","0.0-65.0-2.1","","null","<p style='position: absolute; top: 48%;right: 25%'><img src='img/s2.bmp' width='200px'/></p><p style='position: absolute; top: 53%;right: 27%;color: whilt;font-size: 45pt;'>￥0</p><p style='font-size: 48px'>+</p>","null","","","","","","",""
"html-keyboard-response","384","1112614","0.0-65.0-3.1","","null","<p style='font-size: 48px'>+</p>","null","","","","","","",""
"html-keyboard-response","385","1114615","0.0-66.0-0.0","","null","<p>今どれくらい楽しいかを教えてください</p>","null","","","","","","",""
"html-slider-response","386","1115813","0.0-66.0-1.0","","1196.7800000002608","<p>今どれくらい楽しいかを教えてください</p>","","98","","","","","",""
"html-keyboard-response","387","1118613","0.0-66.0-2.0","","null","<p style=""font-size: 48px"">+</p>","null","","","","","","",""
"html-button-response","388","1119686","0.0-67.0-0.0","","1069.9000000003725","","","","4","0","-33","33","-33","5"
"html-keyboard-response","389","1124197","0.0-67.0-1.0","","null","<p style='position: absolute; top: 27%;right: 25%'><img src='img/s2.bmp' width='200px'/></p><p style='position: absolute; top: 31%;right: 27%;color: whilt;font-size: 45pt;'>￥33</p><p style='position: absolute; top: 48%;right: 25%'><img src='img/s2.bmp' width='200px'/></p><p style='position: absolute; top: 53%;right: 27%;color: whilt;font-size: 45pt;'>￥-33</p><p style='font-size: 48px'>+</p>","null","","","","","","",""
"html-keyboard-response","390","1125200","0.0-67.0-2.0","","null","<p style='position: absolute; top: 48%;right: 25%'><img src='img/s2.bmp' width='200px'/></p><p style='position: absolute; top: 53%;right: 27%;color: whilt;font-size: 45pt;'>￥-33</p><p style='font-size: 48px'>+</p>","null","","","","","","",""
"html-keyboard-response","391","1130804","0.0-67.0-3.0","","null","<p style='font-size: 48px'>+</p>","null","","","","","","",""
"html-button-response","392","1132541","0.0-67.0-0.1","","1733.9499999999534","","","","4","-60","0","0","-109.2","3"
"html-keyboard-response","393","1137043","0.0-67.0-1.1","","4020.0999999998603","<p style='position: absolute; top: 27%;right: 25%'><img src='img/s2.bmp' width='200px'/></p><p style='position: absolute; top: 31%;right: 27%;color: whilt;font-size: 45pt;'>￥0</p><p style='position: absolute; top: 48%;right: 25%'><img src='img/s2.bmp' width='200px'/></p><p style='position: absolute; top: 53%;right: 27%;color: whilt;font-size: 45pt;'>￥-109.2</p><p style='font-size: 48px'>+</p>","18","","","","","","",""
"html-keyboard-response","394","1138058","0.0-67.0-2.1","","null","<p style='position: absolute; top: 27%;right: 25%'><img src='img/s2.bmp' width='200px'/></p><p style='position: absolute; top: 31%;right: 27%;color: whilt;font-size: 45pt;'>￥0</p><p style='font-size: 48px'>+</p>","null","","","","","","",""
"html-keyboard-response","395","1140171","0.0-67.0-3.1","","null","<p style='font-size: 48px'>+</p>","null","","","","","","",""
"html-button-response","396","1141182","0.0-67.0-0.2","","1009.6849999991246","","","","4","0","-45","45","-45","11"
"html-keyboard-response","397","1145684","0.0-67.0-1.2","","null","<p style='position: absolute; top: 27%;right: 25%'><img src='img/s2.bmp' width='200px'/></p><p style='position: absolute; top: 31%;right: 27%;color: whilt;font-size: 45pt;'>￥45</p><p style='position: absolute; top: 48%;right: 25%'><img src='img/s2.bmp' width='200px'/></p><p style='position: absolute; top: 53%;right: 27%;color: whilt;font-size: 45pt;'>￥-45</p><p style='font-size: 48px'>+</p>","null","","","","","","",""
"html-keyboard-response","398","1146686","0.0-67.0-2.2","","null","<p style='position: absolute; top: 48%;right: 25%'><img src='img/s2.bmp' width='200px'/></p><p style='position: absolute; top: 53%;right: 27%;color: whilt;font-size: 45pt;'>￥-45</p><p style='font-size: 48px'>+</p>","null","","","","","","",""
"html-keyboard-response","399","1153687","0.0-67.0-3.2","","null","<p style='font-size: 48px'>+</p>","null","","","","","","",""
"html-keyboard-response","400","1155687","0.0-68.0-0.0","","null","<p>今どれくらい楽しいかを教えてください</p>","null","","","","","","",""
"html-slider-response","401","1159697","0.0-68.0-1.0","","null","<p>今どれくらい楽しいかを教えてください</p>","","null","","","","","",""
"html-keyboard-response","402","1162500","0.0-68.0-2.0","","null","<p style=""font-size: 48px"">+</p>","null","","","","","","",""
"html-button-response","403","1165512","0.0-69.0-0.0","","null","","","","null","-30","0","0","-54.6","3"
"html-keyboard-response","404","1170015","0.0-69.0-1.0","","null","<p style='position: absolute; top: 48%;right: 25%'><img src='img/s2.bmp' width='200px'/></p><p style='position: absolute; top: 53%;right: 27%;color: whilt;font-size: 45pt;'>￥-54.6</p><p style='font-size: 48px'>+</p>","null","","","","","","",""
"html-keyboard-response","405","1171022","0.0-69.0-2.0","","null","<p style='position: absolute; top: 48%;right: 25%'><img src='img/s2.bmp' width='200px'/></p><p style='position: absolute; top: 53%;right: 27%;color: whilt;font-size: 45pt;'>￥-54.6</p><p style='font-size: 48px'>+</p>","null","","","","","","",""
"html-keyboard-response","406","1178036","0.0-69.0-3.0","","null","<p style='font-size: 48px'>+</p>","null","","","","","","",""
"html-button-response","407","1181043","0.0-69.0-0.1","","null","","","","null","0","22","22","-22","3"
"html-keyboard-response","408","1185552","0.0-69.0-1.1","","null","<p style='position: absolute; top: 48%;right: 25%'><img src='img/s2.bmp' width='200px'/></p><p style='position: absolute; top: 53%;right: 27%;color: whilt;font-size: 45pt;'>￥-22</p><p style='font-size: 48px'>+</p>","null","","","","","","",""
"html-keyboard-response","409","1186559","0.0-69.0-2.1","","null","<p style='position: absolute; top: 48%;right: 25%'><img src='img/s2.bmp' width='200px'/></p><p style='position: absolute; top: 53%;right: 27%;color: whilt;font-size: 45pt;'>￥-22</p><p style='font-size: 48px'>+</p>","null","","","","","","",""
"html-keyboard-response","410","1192165","0.0-69.0-3.1","","null","<p style='font-size: 48px'>+</p>","null","","","","","","",""
"html-button-response","411","1195176","0.0-69.0-0.2","","null","","","","null","-20","0","0","-44.4","5"
"html-keyboard-response","412","1199679","0.0-69.0-1.2","","null","<p style='position: absolute; top: 48%;right: 25%'><img src='img/s2.bmp' width='200px'/></p><p style='position: absolute; top: 53%;right: 27%;color: whilt;font-size: 45pt;'>￥-44.4</p><p style='font-size: 48px'>+</p>","null","","","","","","",""
"html-keyboard-response","413","1200680","0.0-69.0-2.2","","null","<p style='position: absolute; top: 48%;right: 25%'><img src='img/s2.bmp' width='200px'/></p><p style='position: absolute; top: 53%;right: 27%;color: whilt;font-size: 45pt;'>￥-44.4</p><p style='font-size: 48px'>+</p>","null","","","","","","",""
"html-keyboard-response","414","1204882","0.0-69.0-3.2","","null","<p style='font-size: 48px'>+</p>","null","","","","","","",""
"html-keyboard-response","415","1206886","0.0-70.0-0.0","","null","<p>今どれくらい楽しいかを教えてください</p>","null","","","","","","",""
"html-slider-response","416","1209073","0.0-70.0-1.0","","2185.6549999993294","<p>今どれくらい楽しいかを教えてください</p>","","88","","","","","",""
"html-keyboard-response","417","1213275","0.0-70.0-2.0","","null","<p style=""font-size: 48px"">+</p>","null","","","","","","",""
"html-button-response","418","1214346","0.0-71.0-0.0","","1068.9650000003166","","","","4","0","30","30","-30","4"
"html-keyboard-response","419","1218856","0.0-71.0-1.0","","null","<p style='position: absolute; top: 27%;right: 25%'><img src='img/s2.bmp' width='200px'/></p><p style='position: absolute; top: 31%;right: 27%;color: whilt;font-size: 45pt;'>￥30</p><p style='position: absolute; top: 48%;right: 25%'><img src='img/s2.bmp' width='200px'/></p><p style='position: absolute; top: 53%;right: 27%;color: whilt;font-size: 45pt;'>￥-30</p><p style='font-size: 48px'>+</p>","null","","","","","","",""
"html-keyboard-response","420","1219862","0.0-71.0-2.0","","null","<p style='position: absolute; top: 27%;right: 25%'><img src='img/s2.bmp' width='200px'/></p><p style='position: absolute; top: 31%;right: 27%;color: whilt;font-size: 45pt;'>￥30</p><p style='font-size: 48px'>+</p>","null","","","","","","",""
"html-keyboard-response","421","1222670","0.0-71.0-3.0","","null","<p style='font-size: 48px'>+</p>","null","","","","","","",""
"html-button-response","422","1223669","0.0-71.0-0.1","","996.1900000015739","","","","4","0","-300","300","-300","9"
"html-keyboard-response","423","1228173","0.0-71.0-1.1","","null","<p style='position: absolute; top: 27%;right: 25%'><img src='img/s2.bmp' width='200px'/></p><p style='position: absolute; top: 31%;right: 27%;color: whilt;font-size: 45pt;'>￥300</p><p style='position: absolute; top: 48%;right: 25%'><img src='img/s2.bmp' width='200px'/></p><p style='position: absolute; top: 53%;right: 27%;color: whilt;font-size: 45pt;'>￥-300</p><p style='font-size: 48px'>+</p>","null","","","","","","",""
"html-keyboard-response","424","1229188","0.0-71.0-2.1","","null","<p style='position: absolute; top: 48%;right: 25%'><img src='img/s2.bmp' width='200px'/></p><p style='position: absolute; top: 53%;right: 27%;color: whilt;font-size: 45pt;'>￥-300</p><p style='font-size: 48px'>+</p>","null","","","","","","",""
"html-keyboard-response","425","1233389","0.0-71.0-3.1","","null","<p style='font-size: 48px'>+</p>","null","","","","","","",""
"html-keyboard-response","426","1235391","0.0-72.0-0.0","","null","<p>今どれくらい楽しいかを教えてください</p>","null","","","","","","",""
"html-slider-response","427","1236984","0.0-72.0-1.0","","1592.7749999992084","<p>今どれくらい楽しいかを教えてください</p>","","30","","","","","",""
"html-keyboard-response","428","1241186","0.0-72.0-2.0","","null","<p style=""font-size: 48px"">+</p>","null","","","","","","",""
"html-button-response","429","1242213","0.0-73.0-0.0","","1026.8599999998696","","","","4","0","-10","10","-10","4"
"html-keyboard-response","430","1246716","0.0-73.0-1.0","","null","<p style='position: absolute; top: 27%;right: 25%'><img src='img/s2.bmp' width='200px'/></p><p style='position: absolute; top: 31%;right: 27%;color: whilt;font-size: 45pt;'>￥10</p><p style='position: absolute; top: 48%;right: 25%'><img src='img/s2.bmp' width='200px'/></p><p style='position: absolute; top: 53%;right: 27%;color: whilt;font-size: 45pt;'>￥-10</p><p style='font-size: 48px'>+</p>","null","","","","","","",""
"html-keyboard-response","431","1247720","0.0-73.0-2.0","","null","<p style='position: absolute; top: 48%;right: 25%'><img src='img/s2.bmp' width='200px'/></p><p style='position: absolute; top: 53%;right: 27%;color: whilt;font-size: 45pt;'>￥-10</p><p style='font-size: 48px'>+</p>","null","","","","","","",""
"html-keyboard-response","432","1253320","0.0-73.0-3.0","","null","<p style='font-size: 48px'>+</p>","null","","","","","","",""
"html-button-response","433","1254288","0.0-73.0-0.1","","965.4900000004563","","","","4","40","67.2","67.2","0","6"
"html-keyboard-response","434","1258791","0.0-73.0-1.1","","null","<p style='position: absolute; top: 27%;right: 25%'><img src='img/s2.bmp' width='200px'/></p><p style='position: absolute; top: 31%;right: 27%;color: whilt;font-size: 45pt;'>￥67.2</p><p style='position: absolute; top: 48%;right: 25%'><img src='img/s2.bmp' width='200px'/></p><p style='position: absolute; top: 53%;right: 27%;color: whilt;font-size: 45pt;'>￥0</p><p style='font-size: 48px'>+</p>","null","","","","","","",""
"html-keyboard-response","435","1259792","0.0-73.0-2.1","","null","<p style='position: absolute; top: 27%;right: 25%'><img src='img/s2.bmp' width='200px'/></p><p style='position: absolute; top: 31%;right: 27%;color: whilt;font-size: 45pt;'>￥67.2</p><p style='font-size: 48px'>+</p>","null","","","","","","",""
"html-keyboard-response","436","1266093","0.0-73.0-3.1","","null","<p style='font-size: 48px'>+</p>","null","","","","","","",""
"html-button-response","437","1267099","0.0-73.0-0.2","","1003.9099999994505","","","","4","20","0","72","0","5"
"html-keyboard-response","438","1271602","0.0-73.0-1.2","","null","<p style='position: absolute; top: 27%;right: 25%'><img src='img/s2.bmp' width='200px'/></p><p style='position: absolute; top: 31%;right: 27%;color: whilt;font-size: 45pt;'>￥72</p><p style='position: absolute; top: 48%;right: 25%'><img src='img/s2.bmp' width='200px'/></p><p style='position: absolute; top: 53%;right: 27%;color: whilt;font-size: 45pt;'>￥0</p><p style='font-size: 48px'>+</p>","null","","","","","","",""
"html-keyboard-response","439","1272603","0.0-73.0-2.2","","null","<p style='position: absolute; top: 48%;right: 25%'><img src='img/s2.bmp' width='200px'/></p><p style='position: absolute; top: 53%;right: 27%;color: whilt;font-size: 45pt;'>￥0</p><p style='font-size: 48px'>+</p>","null","","","","","","",""
"html-keyboard-response","440","1277505","0.0-73.0-3.2","","null","<p style='font-size: 48px'>+</p>","null","","","","","","",""
"html-keyboard-response","441","1279505","0.0-74.0-0.0","","null","<p>今どれくらい楽しいかを教えてください</p>","null","","","","","","",""
"html-slider-response","442","1281457","0.0-74.0-1.0","","1951.7799999993294","<p>今どれくらい楽しいかを教えてください</p>","","78","","","","","",""
"html-keyboard-response","443","1283567","0.0-74.0-2.0","","null","<p style=""font-size: 48px"">+</p>","null","","","","","","",""
"html-button-response","444","1285879","0.0-75.0-0.0","","2309.165000000503","","","","4","0","165","165","-165","7"
"html-keyboard-response","445","1290381","0.0-75.0-1.0","","null","<p style='position: absolute; top: 27%;right: 25%'><img src='img/s2.bmp' width='200px'/></p><p style='position: absolute; top: 31%;right: 27%;color: whilt;font-size: 45pt;'>￥165</p><p style='position: absolute; top: 48%;right: 25%'><img src='img/s2.bmp' width='200px'/></p><p style='position: absolute; top: 53%;right: 27%;color: whilt;font-size: 45pt;'>￥-165</p><p style='font-size: 48px'>+</p>","null","","","","","","",""
"html-keyboard-response","446","1291382","0.0-75.0-2.0","","null","<p style='position: absolute; top: 27%;right: 25%'><img src='img/s2.bmp' width='200px'/></p><p style='position: absolute; top: 31%;right: 27%;color: whilt;font-size: 45pt;'>￥165</p><p style='font-size: 48px'>+</p>","null","","","","","","",""
"html-keyboard-response","447","1293484","0.0-75.0-3.0","","null","<p style='font-size: 48px'>+</p>","null","","","","","","",""
"html-button-response","448","1294765","0.0-75.0-0.1","","1278.7150000003166","","","","1","-60","-216","0","-216","3"
"html-keyboard-response","449","1299267","0.0-75.0-1.1","","null","<p style='position: absolute; top: 38%;left: 25%'><img src='img/s2.bmp' width='200px'/></p><p style='position: absolute; top: 42%;left: 28%;color: whilt;font-size: 45pt;'>￥-60</p><p style='font-size: 48px'>+</p>","null","","","","","","",""
"html-keyboard-response","450","1300269","0.0-75.0-2.1","","null","<p style='position: absolute; top: 38%;left: 25%'><img src='img/s2.bmp' width='200px'/></p><p style='position: absolute; top: 42%;left: 28%;color: whilt;font-size: 45pt;'>￥-60</p><p style='font-size: 48px'>+</p>","null","","","","","","",""
